File: 3번째시료/XRD_3rd
10.1559	0.0495925
10.2166	0.0481824
10.2774	0.0487671
10.3381	0.0478385
10.3989	0.05028029
10.4596	0.0474602
10.5204	0.0474258
10.5811	0.0468755
10.6418	0.0468411
10.7026	0.0484575
10.7633	0.0464972
10.8241	0.0486983
10.8848	0.0477353
10.9456	0.0450528
11.0063	0.0470131
11.067	0.04955807
11.1278	0.0463941
11.1885	0.0483888
11.2493	0.04525914
11.31	0.0454655
11.3708	0.0446401
11.4315	0.0438147
11.4923	0.0448121
11.553	0.0444337
11.6137	0.0457062
11.6745	0.0455343
11.7352	0.0445025
11.796	0.044365
11.8567	0.044021
11.9175	0.0446401
11.9782	0.0469787
12.0389	0.0437115
12.0997	0.0464972
12.1604	0.0460845
12.2212	0.0415793
12.2819	0.0423015
12.3427	0.042611
12.4034	0.0415449
12.4641	0.0421295
12.5249	0.0417512
12.5856	0.04003164
12.6464	0.0423703
12.7071	0.0410634
12.7679	0.0431613
12.8286	0.0430925
12.8893	0.041029
12.9501	0.0408226
13.0108	0.0412009
13.0716	0.039275
13.1323	0.0404443
13.1931	0.0391031
13.2538	0.0385872
13.3145	0.04003164
13.3753	0.0381057
13.436	0.0404787
13.4968	0.0375898
13.5575	0.0374867
13.6183	0.0378306
13.679	0.0371084
13.7397	0.0405819
13.8005	0.0360078
13.8612	0.0364893
13.922	0.0375555
13.9827	0.0380369
14.0435	0.0362486
14.1042	0.0380025
14.1649	0.0344946
14.2257	0.0383809
14.2864	0.0394126
14.3472	0.03693641
14.4079	0.0342195
14.4687	0.0345978
14.5294	0.0364893
14.5901	0.034701
14.6509	0.036283
14.7116	0.0363174
14.7724	0.0388967
14.8331	0.0347354
14.8939	0.0351137
14.9546	0.0363174
15.0153	0.0388967
15.0761	0.052103
15.1368	0.105685
15.1976	0.117997
15.2583	0.0479073
15.3191	0.0377618
15.3798	0.036902
15.4405	0.0375211
15.5013	0.0341163
15.562	0.0367988
15.6228	0.03645493
15.6835	0.0343914
15.7443	0.0337036
15.805	0.0341507
15.8657	0.034701
15.9265	0.0355608
15.9872	0.0340131
16.048	0.0348041
16.1087	0.0346322
16.1695	0.032947
16.2302	0.03532
16.2909	0.0335317
16.3517	0.0315026
16.4124	0.0329126
16.4732	0.03263748
16.5339	0.0318465
16.5947	0.0319497
16.6554	0.0344258
16.7161	0.03391
16.7769	0.032775
16.8376	0.0312962
16.8984	0.0304708
16.9591	0.0339444
17.0199	0.0319153
17.0806	0.0311586
17.1413	0.0321904
17.2021	0.0336348
17.2628	0.0326719
17.3236	0.0320528
17.3843	0.030402
17.4451	0.032328
17.5058	0.0312618
17.5666	0.0345978
17.6273	0.0336692
17.688	0.032328
17.7488	0.0321904
17.8095	0.0320872
17.8703	0.0338068
17.931	0.0320528
17.9918	0.03311896
18.0525	0.032775
18.1132	0.0334629
18.174	0.0315026
18.2347	0.0333597
18.2955	0.031984
18.3562	0.0317089
18.417	0.0308835
18.4777	0.0293703
18.5384	0.0313994
18.5992	0.0332565
18.6599	0.0312618
18.7207	0.0296454
18.7814	0.0307116
18.8422	0.031193
18.9029	0.0295766
18.9636	0.0287856
19.0244	0.0310211
19.0851	0.029611
19.1459	0.03074595
19.2066	0.0302301
19.2674	0.0320184
19.3281	0.0316057
19.3888	0.0324655
19.4496	0.0318121
19.5103	0.0304708
19.5711	0.0306084
19.6318	0.0301269
19.6926	0.0299893
19.7533	0.0278915
19.814	0.0318809
19.8748	0.0288544
19.9355	0.0313994
19.9963	0.0319497
20.057	0.0290952
20.1178	0.0295766
20.1785	0.0294391
20.2392	0.0286825
20.3	0.031193
20.3607	0.0304364
20.4215	0.0293359
20.4822	0.031193
20.543	0.0321216
20.6037	0.0305396
20.6644	0.0306084
20.7252	0.0289232
20.7859	0.0311243
20.8467	0.0315026
20.9074	0.0326031
20.9682	0.0300925
21.0289	0.0297486
21.0896	0.0302989
21.1504	0.0290264
21.2111	0.0301957
21.2719	0.0314682
21.3326	0.0304364
21.3934	0.0292671
21.4541	0.0300925
21.5148	0.0312962
21.5756	0.0296454
21.6363	0.0290952
21.6971	0.0293359
21.7578	0.0312618
21.8186	0.0306772
21.8793	0.0320184
21.94	0.0298518
22.0008	0.0304364
22.0615	0.0306084
22.1223	0.0319497
22.183	0.032156
22.2438	0.0315713
22.3045	0.032156
22.3652	0.0330846
22.426	0.0360078
22.4867	0.0367988
22.5475	0.0404443
22.6082	0.0409946
22.669	0.0468755
22.7297	0.0619046
22.7904	0.167418
22.8512	0.323245
22.9119	0.201534
22.9727	0.0815765
23.0334	0.0553358
23.0942	0.0532036
23.1549	0.0560237
23.2157	0.0628676
23.2764	0.0587062
23.3371	0.0460158
23.3979	0.0382433
23.4586	0.0314682
23.5194	0.0328094
23.5801	0.0343571
23.6409	0.0329126
23.7016	0.0301613
23.7623	0.0326719
23.8231	0.0305396
23.8838	0.032775
23.9446	0.03360044
24.0053	0.0342539
24.0661	0.0352856
24.1268	0.0342883
24.1875	0.0346666
24.2483	0.0320184
24.309	0.03074595
24.3698	0.03239674
24.4305	0.0326031
24.4913	0.0289232
24.552	0.0296454
24.6127	0.03026447
24.6735	0.0311586
24.7342	0.03050521
24.795	0.0327063
24.8557	0.0288544
24.9165	0.0322936
24.9772	0.0310555
25.0379	0.0298862
25.0987	0.0289232
25.1594	0.0299549
25.2202	0.0286137
25.2809	0.0318121
25.3417	0.0308491
25.4024	0.0299206
25.4631	0.02882003
25.5239	0.0302301
25.5846	0.02930151
25.6454	0.0285793
25.7061	0.0304364
25.7669	0.0295079
25.8276	0.0316057
25.8883	0.0306428
25.9491	0.0294735
26.0098	0.0277883
26.0706	0.0299893
26.1313	0.0317089
26.1921	0.0308491
26.2528	0.0301613
26.3135	0.0292671
26.3743	0.0294735
26.435	0.0302989
26.4958	0.0300581
26.5565	0.0304364
26.6173	0.0293359
26.678	0.0289232
26.7387	0.0326031
26.7995	0.0290264
26.8602	0.0317777
26.921	0.0312618
26.9817	0.0300925
27.0425	0.0307116
27.1032	0.02978299
27.1639	0.0306772
27.2247	0.0325343
27.2854	0.0332221
27.3462	0.0339444
27.4069	0.0348385
27.4677	0.03930942
27.5284	0.0529284
27.5891	0.0583279
27.6499	0.0536507
27.7106	0.0476321
27.7714	0.050693
27.8321	0.0644496
27.8929	0.0735633
27.9536	0.060976
28.0143	0.0397565
28.0751	0.0348729
28.1358	0.0360766
28.1966	0.033566
28.2573	0.0333253
28.3181	0.0350105
28.3788	0.0327407
28.4395	0.03239674
28.5003	0.0312274
28.561	0.0310899
28.6218	0.0316745
28.6825	0.0308835
28.7433	0.0286825
28.804	0.02930151
28.8647	0.0317777
28.9255	0.031193
28.9862	0.0305396
29.047	0.03050521
29.1077	0.0341163
29.1685	0.0356983
29.2292	0.0373147
29.29	0.03384118
29.3507	0.03360044
29.4114	0.0326719
29.4722	0.030574
29.5329	0.02930151
29.5937	0.0300581
29.6544	0.0328094
29.7152	0.0299893
29.7759	0.0308835
29.8366	0.032156
29.8974	0.0320528
29.9581	0.0319153
30.0189	0.0324655
30.0796	0.0341507
30.1404	0.032328
30.2011	0.0302301
30.2618	0.0303333
30.3226	0.0303333
30.3833	0.0316745
30.4441	0.0316401
30.5048	0.0351824
30.5656	0.0431613
30.6263	0.0490078
30.687	0.0437803
30.7478	0.0343227
30.8085	0.0322248
30.8693	0.0315026
30.93	0.0318121
30.9908	0.0306084
31.0515	0.0307803
31.1122	0.0308491
31.173	0.0306084
31.2337	0.0303333
31.2945	0.031365
31.3552	0.0318121
31.416	0.0343914
31.4767	0.0351481
31.5374	0.0354232
31.5982	0.0391031
31.6589	0.0403412
31.7197	0.0406851
31.7804	0.0423015
31.8412	0.0448121
31.9019	0.0427486
31.9626	0.0449496
32.0234	0.0499364
32.0841	0.0545104
32.1449	0.0581903
32.2056	0.0652406
32.2664	0.0765897
32.3271	0.09578017
32.3878	0.134539
32.4486	0.224576
32.5093	0.487602
32.5701	0.55267
32.6308	0.506448
32.6916	0.444785
32.7523	0.647178
32.813	0.988204
32.8738	0.835299
32.9345	0.504591
32.9953	0.227809
33.056	0.135812
33.1168	0.0976717
33.1775	0.0776559
33.2382	0.0635898
33.299	0.0539946
33.3597	0.0511057
33.4205	0.0478385
33.4812	0.0443994
33.542	0.0447433
33.6027	0.0406163
33.6634	0.0415105
33.7242	0.045156
33.7849	0.0456374
33.8457	0.0431957
33.9064	0.0393782
33.9672	0.038656
34.0279	0.0371084
34.0886	0.0346666
34.1494	0.0375555
34.2101	0.0346666
34.2709	0.0351481
34.3316	0.0331877
34.3924	0.0338756
34.4531	0.0320872
34.5138	0.0342195
34.5746	0.0324311
34.6353	0.034529
34.6961	0.034701
34.7568	0.0300581
34.8176	0.0320872
34.8783	0.0322592
34.9391	0.0314338
34.9998	0.0332221
35.0605	0.0337036
35.1213	0.0336348
35.182	0.0319153
35.2428	0.0337724
35.3035	0.03391
35.3643	0.0328438
35.425	0.0331877
35.4857	0.0334973
35.5465	0.0364893
35.6072	0.0343227
35.668	0.03311896
35.7287	0.033738
35.7895	0.0342883
35.8502	0.032328
35.9109	0.0311243
35.9717	0.0334973
36.0324	0.0312618
36.0932	0.0318465
36.1539	0.0351824
36.2147	0.0339444
36.2754	0.0397221
36.3361	0.0545104
36.3969	0.04931733
36.4576	0.0431613
36.5184	0.0345978
36.5791	0.0334629
36.6399	0.0326719
36.7006	0.0319153
36.7613	0.0300925
36.8221	0.0292327
36.8828	0.0287856
36.9436	0.0283042
37.0043	0.0297142
37.0651	0.0321904
37.1258	0.0322248
37.1865	0.0295766
37.2473	0.0316745
37.308	0.0301613
37.3688	0.0306428
37.4295	0.0309867
37.4903	0.0314338
37.551	0.0311586
37.6117	0.0313306
37.6725	0.03026447
37.7332	0.0314682
37.794	0.0310555
37.8547	0.030574
37.9155	0.0318465
37.9762	0.0306428
38.0369	0.0325687
38.0977	0.0341163
38.1584	0.0357671
38.2192	0.0380369
38.2799	0.0427142
38.3407	0.0486295
38.4014	0.0605633
38.4621	0.121539
38.5229	0.2676
38.5836	0.214947
38.6444	0.172645
38.7051	0.0977061
38.7659	0.0768993
38.8266	0.060976
38.8873	0.0532723
38.9481	0.0414761
39.0088	0.0368332
39.0696	0.0344258
39.1303	0.0337724
39.1911	0.03311896
39.2518	0.032328
39.3125	0.031193
39.3733	0.0335317
39.434	0.030402
39.4948	0.0312274
39.5555	0.03026447
39.6163	0.0323623
39.677	0.0300581
39.7377	0.0333597
39.7985	0.030402
39.8592	0.031193
39.92	0.0352168
39.9807	0.0347697
40.0415	0.03955016
40.1022	0.0392062
40.1629	0.0437803
40.2237	0.0515872
40.2844	0.08054476
40.3452	0.161605
40.4059	0.141693
40.4667	0.120542
40.5274	0.0734945
40.5882	0.0511401
40.6489	0.0399285
40.7096	0.0393438
40.7704	0.0353888
40.8311	0.0329126
40.8919	0.0319153
40.9526	0.0320184
41.0134	0.0309867
41.0741	0.0298862
41.1348	0.02954225
41.1956	0.0292671
41.2563	0.0306772
41.3171	0.02930151
41.3778	0.02930151
41.4386	0.028992
41.4993	0.02906077
41.56	0.0296454
41.6208	0.0293359
41.6815	0.0301957
41.7423	0.0288544
41.803	0.0299206
41.8638	0.02882003
41.9245	0.0283385
41.9852	0.0298862
42.046	0.0282354
42.1067	0.0267909
42.1675	0.0291296
42.2282	0.0287512
42.289	0.0284073
42.3497	0.0287856
42.4104	0.0270317
42.4712	0.0280634
42.5319	0.0287856
42.5927	0.0296798
42.6534	0.0279946
42.7142	0.0283385
42.7749	0.028029
42.8356	0.0263782
42.8964	0.0292671
42.9571	0.0284073
43.0179	0.0281322
43.0786	0.02668776
43.1394	0.0283042
43.2001	0.0274788
43.2608	0.0269629
43.3216	0.0274788
43.3823	0.0264126
43.4431	0.0283042
43.5038	0.0279946
43.5646	0.0274444
43.6253	0.0273068
43.686	0.0277883
43.7468	0.02716924
43.8075	0.0268597
43.8683	0.02740998
43.929	0.0289232
43.9898	0.0263782
44.0505	0.0273068
44.1112	0.0271348
44.172	0.0278571
44.2327	0.028992
44.2935	0.0277539
44.3542	0.0278571
44.415	0.02882003
44.4757	0.0272724
44.5364	0.0278915
44.5972	0.0280978
44.6579	0.0287169
44.7187	0.0279259
44.7794	0.0273068
44.8402	0.0284073
44.9009	0.0286825
44.9616	0.0292327
45.0224	0.0277195
45.0831	0.0296454
45.1439	0.0299893
45.2046	0.031365
45.2654	0.0348041
45.3261	0.0347697
45.3868	0.03391
45.4476	0.0352512
45.5083	0.0360766
45.5691	0.0353888
45.6298	0.0341851
45.6906	0.0317433
45.7513	0.0302989
45.812	0.0299893
45.8728	0.0308491
45.9335	0.0316401
45.9943	0.0326031
46.055	0.0334285
46.1158	0.0338756
46.1765	0.0366613
46.2372	0.0386904
46.298	0.0405819
46.3587	0.047357
46.4195	0.0517591
46.4802	0.0682326
46.541	0.0999415
46.6017	0.227637
46.6625	0.32665
46.7232	0.284176
46.7839	0.241222
46.8447	0.156791
46.9054	0.099013
46.9662	0.0713279
47.0269	0.0625236
47.0877	0.0548887
47.1484	0.0499364
47.2091	0.0529628
47.2699	0.053857
47.3306	0.0599099
47.3914	0.0670289
47.4521	0.0850156
47.5129	0.100457
47.5736	0.108505
47.6343	0.0892114
47.6951	0.0713622
47.7558	0.054029
47.8166	0.043402
47.8773	0.0371428
47.9381	0.0360422
47.9988	0.0336348
48.0595	0.0310211
48.1203	0.0316745
48.181	0.0290264
48.2418	0.0293359
48.3025	0.0291296
48.3633	0.0312962
48.424	0.0294391
48.4847	0.0299549
48.5455	0.0304364
48.6062	0.0284073
48.667	0.0297142
48.7277	0.028992
48.7885	0.0291639
48.8492	0.0294047
48.9099	0.0303333
48.9707	0.0293703
49.0314	0.0277195
49.0922	0.0287169
49.1529	0.0299549
49.2137	0.0295766
49.2744	0.0290264
49.3351	0.0300581
49.3959	0.0289232
49.4566	0.0289576
49.5174	0.0299893
49.5781	0.028992
49.6389	0.028201
49.6996	0.0302989
49.7603	0.0282354
49.8211	0.0286825
49.8818	0.0274788
49.9426	0.0292671
50.0033	0.0277539
50.0641	0.0299893
50.1248	0.0285449
50.1855	0.0278571
50.2463	0.03002373
50.307	0.02882003
50.3678	0.0285449
50.4285	0.0287512
50.4893	0.0283385
50.55	0.0296798
50.6107	0.0278571
50.6715	0.0276851
50.7322	0.0289576
50.793	0.0304364
50.8537	0.0278571
50.9145	0.0289232
50.9752	0.0285449
51.0359	0.0290264
51.0967	0.0295079
51.1574	0.0299549
51.2182	0.0316745
51.2789	0.03311896
51.3397	0.0320184
51.4004	0.039275
51.4611	0.0543385
51.5219	0.055439
51.5826	0.0462909
51.6434	0.043574
51.7041	0.0365237
51.7649	0.0329126
51.8256	0.0318465
51.8863	0.03050521
51.9471	0.02978299
52.0078	0.0302301
52.0686	0.0295766
52.1293	0.0288888
52.1901	0.0302301
52.2508	0.0301613
52.3116	0.031537
52.3723	0.0297142
52.433	0.032328
52.4938	0.0413729
52.5545	0.0467724
52.6153	0.0466348
52.676	0.0490422
52.7368	0.0505554
52.7975	0.0472882
52.8582	0.0428173
52.919	0.038484
52.9797	0.03693641
53.0405	0.0330158
53.1012	0.0345978
53.162	0.03384118
53.2227	0.0358015
53.2834	0.0388623
53.3442	0.0373835
53.4049	0.0418888
53.4657	0.0368332
53.5264	0.0356983
53.5872	0.0344258
53.6479	0.0297142
53.7086	0.0298174
53.7694	0.0299893
53.8301	0.0293703
53.8909	0.0257936
53.9516	0.0271005
54.0124	0.0294391
54.0731	0.0287512
54.1338	0.0287856
54.1946	0.0296454
54.2553	0.0277883
54.3161	0.0274444
54.3768	0.0276163
54.4376	0.0298174
54.4983	0.0288888
54.559	0.0273412
54.6198	0.0285449
54.6805	0.0287512
54.7413	0.0290952
54.802	0.0309179
54.8628	0.0317777
54.9235	0.0367301
54.9842	0.0490422
55.045	0.0514152
55.1057	0.0476321
55.1665	0.0440554
55.2272	0.04312687
55.288	0.037693
55.3487	0.0361454
55.4094	0.03384118
55.4702	0.03384118
55.5309	0.0302301
55.5917	0.0309867
55.6524	0.0299549
55.7132	0.0308491
55.7739	0.0320528
55.8346	0.0336348
55.8954	0.0309523
55.9561	0.0296798
56.0169	0.0310555
56.0776	0.0283729
56.1384	0.0285449
56.1991	0.0291639
56.2598	0.0284761
56.3206	0.0286825
56.3813	0.0286825
56.4421	0.0284761
56.5028	0.0274444
56.5636	0.0291983
56.6243	0.02740998
56.685	0.0282698
56.7458	0.0300581
56.8065	0.028201
56.8673	0.0287856
56.928	0.0294735
56.9888	0.0300581
57.0495	0.0299549
57.1102	0.028992
57.171	0.0320872
57.2317	0.0298518
57.2925	0.0310555
57.3532	0.0326719
57.414	0.0309523
57.4747	0.032156
57.5354	0.03239674
57.5962	0.0322936
57.6569	0.0366613
57.7177	0.0378994
57.7784	0.04051312
57.8392	0.04384909
57.8999	0.0510025
57.9606	0.0604258
58.0214	0.0735289
58.0821	0.0982564
58.1429	0.164563
58.2036	0.261616
58.2644	0.21873
58.3251	0.198129
58.3859	0.182515
58.4466	0.131066
58.5073	0.0987378
58.5681	0.0892802
58.6288	0.0921347
58.6896	0.10369
58.7503	0.115899
58.8111	0.115899
58.8718	0.0970183
58.9325	0.0847749
58.9933	0.0698834
59.054	0.0539946
59.1148	0.0456031
59.1755	0.0394126
59.2363	0.0370396
59.297	0.0342539
59.3577	0.0329126
59.4185	0.0308835
59.4792	0.0300925
59.54	0.0315026
59.6007	0.0291983
59.6615	0.0301613
59.7222	0.0300581
59.7829	0.0306428
59.8437	0.0297486
59.9044	0.029611
59.9652	0.03026447
60.0259	0.0279602
60.0867	0.029611
60.1474	0.028992
60.2081	0.0317433
60.2689	0.0304708
60.3296	0.0316401
60.3904	0.0347697
60.4511	0.03532
60.5119	0.0358015
60.5726	0.0342195
60.6333	0.0329126
60.6941	0.0307803
60.7548	0.0299549
60.8156	0.0295766
60.8763	0.0299206
60.9371	0.03050521
60.9978	0.0287856
61.0585	0.0285449
61.1193	0.0285105
61.18	0.0282354
61.2408	0.0278571
61.3015	0.0296798
61.3623	0.0272036
61.423	0.0285793
61.4837	0.0283729
61.5445	0.0295766
61.6052	0.0290264
61.666	0.0278915
61.7267	0.02906077
61.7875	0.031537
61.8482	0.0302989
61.9089	0.031537
61.9697	0.0344946
62.0304	0.0405819
62.0912	0.0430925
62.1519	0.0399285
62.2127	0.0423359
62.2734	0.0404099
62.3341	0.0398597
62.3949	0.0360766
62.4556	0.0361798
62.5164	0.0352856
62.5771	0.0368676
62.6379	0.0396533
62.6986	0.04323
62.7593	0.0470131
62.8201	0.0430581
62.8808	0.0408914
62.9416	0.0381057
63.0023	0.0353888
63.0631	0.0316745
63.1238	0.0298862
63.1845	0.0288544
63.2453	0.0281322
63.306	0.0274788
63.3668	0.0286825
63.4275	0.026619
63.4883	0.0285449
63.549	0.0261375
63.6097	0.0285105
63.6705	0.0283729
63.7312	0.0281322
63.792	0.0278571
63.8527	0.0284761
63.9135	0.0296454
63.9742	0.0267909
64.035	0.0273756
64.0957	0.02740998
64.15639	0.026619
64.21719	0.026619
64.27789	0.026619
64.3387	0.0267909
64.3994	0.0272724
64.4602	0.0269629
64.5209	0.0279946
64.5816	0.0261375
64.6424	0.0273756
64.70309	0.0276851
64.76389	0.026619
64.82459	0.02620628
64.8854	0.0274788
64.9461	0.02668776
65.0068	0.0263095
65.0676	0.0277539
65.1283	0.0264814
65.18909	0.0276507
65.24979	0.0282354
65.31059	0.0295766
65.3713	0.029611
65.432	0.0300581
65.4928	0.03693641
65.5535	0.0415793
65.6143	0.03741789
65.675	0.0328094
65.73579	0.0340131
65.79649	0.033738
65.85719	0.0291639
65.918	0.0299549
65.9787	0.0281666
66.0395	0.0271348
66.1002	0.0268597
66.161	0.0269629
66.22169	0.0293703
66.28239	0.0252089
66.34319	0.0282354
66.40389	0.0277195
66.4647	0.0285449
66.5254	0.02668776
66.5862	0.0285449
66.6469	0.0269973
66.7076	0.0283042
66.76839	0.0269629
66.82909	0.0258624
66.88989	0.0250026
66.9506	0.0269973
67.0114	0.0286481
67.0721	0.0287169
67.1328	0.0295766
67.1936	0.0292671
67.2543	0.0292327
67.31509	0.0288544
67.37579	0.0298862
67.4366	0.0291296
67.4973	0.0291983
67.558	0.0299893
67.6188	0.0299893
67.6795	0.0310899
67.7403	0.031365
67.80099	0.0324655
67.86179	0.0341851
67.92249	0.0359391
67.9832	0.0365581
68.044	0.04670358
68.1047	0.0589813
68.1655	0.0606321
68.2262	0.0514496
68.28699	0.0530316
68.34769	0.057021
68.40839	0.05076177
68.46919	0.0497644
68.5299	0.0547512
68.5907	0.0667882
68.6514	0.0796506
68.7122	0.0930976
68.7729	0.114076
68.8336	0.109915
68.89439	0.100526
68.95509	0.0851876
69.0159	0.0746294
69.0766	0.0623173
69.1374	0.0475634
69.1981	0.0403068
69.2588	0.0369708
69.3196	0.0333597
69.38029	0.0315713
69.44109	0.0312274
69.50179	0.0298174
69.5626	0.0275819
69.6233	0.0294735
69.684	0.028201
69.7448	0.0302989
69.8055	0.0291983
69.86629	0.0278915
69.92699	0.0272036
69.98779	0.0271348
70.0485	0.0269285
70.1093	0.0263438
70.17	0.02716924
70.2307	0.0283042
70.2915	0.0265502
70.3522	0.02620628
70.41299	0.0266534
70.47369	0.0267565
70.5345	0.0269285
70.5952	0.0287169
70.6559	0.0268253
70.7167	0.028992
70.7774	0.0263095
70.8382	0.02644702
70.8989	0.0277195
70.95969	0.0271005
71.02039	0.0276507
71.08109	0.02740998
71.1419	0.0277539
71.2026	0.0275475
71.2634	0.0269973
71.3241	0.0274444
71.3849	0.0268941
71.44559	0.0252089
71.50629	0.0274444
71.56709	0.02620628
71.6278	0.0264814
71.6886	0.0262407
71.7493	0.0257248
71.8101	0.0263438
71.8708	0.0273412
71.9315	0.0259999
71.99229	0.0264126
72.05299	0.0267565
72.1138	0.0271348
72.1745	0.0276163
72.2353	0.0271005
72.296	0.0269629
72.3567	0.0267565
72.4175	0.0288888
72.4782	0.0268253
72.53899	0.0264814
72.59969	0.0270317
72.6605	0.0289232
72.7212	0.028201
72.7819	0.033566
72.8427	0.0360078
72.9034	0.0345634
72.9642	0.0356983
73.02489	0.0373835
73.08569	0.0363861
73.14639	0.0315026
73.2071	0.0319153
73.2679	0.0316057
73.3286	0.0328438
73.3894	0.0338756
73.4501	0.03532
73.51089	0.0411666
73.57159	0.0393438
73.63229	0.0347354
73.6931	0.0344602
73.7538	0.0338756
73.8146	0.0317089
73.8753	0.0292671
73.9361	0.02954225
73.9968	0.0283385
74.0575	0.02716924
74.11829	0.0260343
74.17899	0.0276851
74.2398	0.0282354
74.3005	0.0268597
74.3613	0.0266534
74.422	0.0287856
74.4827	0.0288544
74.5435	0.0277539
74.60419	0.0270317
74.66499	0.0275132
74.72569	0.0282698
74.7865	0.0289576
74.8472	0.0296798
74.9079	0.0297142
74.9687	0.0331877
75.0294	0.0311243
75.09019	0.0308147
75.15089	0.0294047
75.21169	0.0307116
75.2724	0.0316401
75.3331	0.02978299
75.3939	0.0286481
75.4546	0.0309523
75.5154	0.0308491
75.5761	0.0295766
75.63689	0.0295079
75.69759	0.0299206
75.7584	0.0297142
75.8191	0.0273756
75.8798	0.0287856
75.9406	0.0283385
76.0013	0.0277195
76.0621	0.0273412
76.1228	0.0285449
76.18359	0.0263438
76.24429	0.0270317
76.30499	0.0269285
76.3658	0.0255872
76.4265	0.027238
76.4873	0.028201
76.548	0.0276163
76.6088	0.0283042
76.66949	0.0284761
76.73019	0.02882003
76.79099	0.0285793
76.8517	0.0273412
76.9125	0.0286481
76.9732	0.0284761
77.034	0.0277883
77.0947	0.0290264
77.1554	0.031365
77.21619	0.0313306
77.27689	0.0343914
77.3377	0.0364893
77.3984	0.04336761
77.4592	0.04883585
77.5199	0.0578464
77.5806	0.0645183
77.6414	0.0685421
77.7021	0.068439
77.76289	0.0619734
77.82359	0.060976
77.8844	0.0566427
77.9451	0.0477009
78.0058	0.04323
78.0666	0.0413729
78.1273	0.0364893
78.1881	0.0334629
78.24879	0.0341163
78.30959	0.0321216
78.37029	0.03408192
78.431	0.0324311
78.4918	0.0325687
78.5525	0.0331877
78.6133	0.0334973
78.674	0.03669567
78.73479	0.0356295
78.79549	0.0404787
78.85619	0.0415105
78.917	0.04832
78.9777	0.0489046
79.0385	0.0496612
79.0992	0.0461877
79.16	0.0438835
79.2207	0.0428173
79.28139	0.036111
79.34219	0.0372803
79.40289	0.0338068
79.4637	0.0296798
79.5244	0.03074595
79.5852	0.030574
79.6459	0.03026447
79.7066	0.0306428
79.7674	0.031365
79.82809	0.0281322
79.88889	0.0309867
79.94959	0.0304364
80.0104	0.0290952
80.03059	0.0287856