File: XRD_O2.txt
10.0013	9.35053
10.0621	9.41138
10.1228	9.22883
10.1835	9.03006
10.2443	9.27751
10.305	9.20449
10.3658	9.91035
10.4265	9.34648
10.4873	9.73997
10.548	10.0118
10.6087	9.52497
10.6695	10.0158
10.7302	9.86978
10.791	10.0483
10.8517	10.1375
10.9125	10.2633
10.9732	10.2146
11.0339	10.1903
11.0947	10.1375
11.1554	10.3322
11.2162	10.3931
11.2769	10.0239
11.3377	10.2511
11.3984	10.3525
11.4592	10.1294
11.5199	10.4539
11.5806	10.9164
11.6414	10.7014
11.7021	10.8312
11.7629	10.5797
11.8236	10.8474
11.8844	10.746
11.9451	10.5756
12.0058	10.4215
12.0666	10.8637
12.1273	10.1821
12.1881	10.6446
12.2488	10.4215
12.3096	10.3282
12.3703	10.4904
12.431	10.5756
12.4918	10.3404
12.5525	10.0523
12.6133	10.5594
12.674	10.1537
12.7348	9.95903
12.7955	9.79676
12.8562	9.52903
12.917	9.55336
12.9777	9.58987
13.0385	9.80893
13.0992	9.11525
13.16	9.24912
13.2207	9.3911
13.2814	8.83128
13.3422	8.89619
13.4029	8.91242
13.4637	8.49458
13.5244	8.80289
13.5852	8.19439
13.6459	7.98345
13.7066	7.68731
13.7674	7.51288
13.8281	7.41146
13.8889	7.46014
13.9496	7.77656
14.0104	7.19646
14.0711	6.68533
14.1318	6.68533
14.1926	6.88005
14.2533	6.51495
14.3141	6.3324
14.3748	6.07683
14.4356	6.63259
14.4963	6.13363
14.557	5.59409
14.6178	5.65089
14.6785	5.76447
14.7393	5.64277
14.8	5.51296
14.8608	5.74419
14.9215	5.47645
14.9822	6.20664
15.043	8.19034
15.1037	15.7276
15.1645	22.0681
15.2252	9.42761
15.286	4.81928
15.3467	4.48663
15.4074	4.48663
15.4682	4.19456
15.5289	4.22701
15.5897	3.77267
15.6504	3.85786
15.7112	3.97955
15.7719	3.46436
15.8326	3.46842
15.8934	3.35483
15.9541	3.46842
16.0149	3.07898
16.0756	3.13578
16.1364	3.2737
16.1971	3.13983
16.2578	2.77474
16.3186	2.95323
16.3793	2.83558
16.4401	2.51917
16.5008	2.52322
16.5616	2.36907
16.6223	2.76662
16.683	2.21492
16.7438	2.3569
16.8045	2.29605
16.8653	2.19869
16.926	1.93096
16.9868	2.03643
17.0475	2.09322
17.1082	1.99992
17.169	2.19464
17.2297	1.74029
17.2905	1.9269
17.3512	2.19058
17.412	1.88228
17.4727	1.66322
17.5335	1.72407
17.5942	1.71595
17.6549	1.64699
17.7157	1.77275
17.7764	1.35086
17.8372	1.42388
17.8979	1.58614
17.9587	1.48067
18.0194	1.33057
18.0801	1.33057
18.1409	1.36303
18.2016	1.22105
18.2624	1.31029
18.3231	1.23727
18.3839	1.31029
18.4446	1.23322
18.5053	1.03038
18.5661	1.2819
18.6268	1.07906
18.6876	0.981705
18.7483	0.981705
18.8091	1.01416
18.8698	1.12369
18.9305	1.01416
18.9913	0.989818
19.052	1.04255
19.1128	0.924912
19.1735	0.961421
19.2343	1.17642
19.295	1.04255
19.3557	0.689627
19.4165	0.969535
19.4772	0.70991
19.538	0.827553
19.5987	0.904629
19.6595	0.462456
19.7202	0.860006
19.7809	0.937082
19.8417	0.742363
19.9024	0.645004
19.9632	0.803213
20.0239	0.584155
20.0847	0.665287
20.1454	0.892459
20.2061	0.713967
20.2669	0.831609
20.3276	0.762647
20.3884	0.498966
20.4491	0.576042
20.5099	0.466513
20.5706	0.555758
20.6313	0.657174
20.6921	0.547645
20.7528	0.523305
20.8136	0.474626
20.8743	0.669344
20.9351	0.405663
20.9958	0.584155
21.0565	0.243398
21.1173	0.632834
21.178	0.604438
21.2388	0.40972
21.2995	0.580098
21.3603	0.490852
21.421	0.486796
21.4817	0.332644
21.5425	0.40972
21.6032	0.425946
21.664	0.40972
21.7247	0.32453
21.7855	0.486796
21.8462	0.430003
21.9069	0.531419
21.9677	0.515192
22.0284	0.730194
22.0892	0.693684
22.1499	0.689627
22.2107	0.888402
22.2714	1.08718
22.3321	0.908685
22.3929	1.20482
22.4536	1.42388
22.5144	1.85388
22.5751	2.507
22.6359	3.69559
22.6966	10.2187
22.7573	30.2584
22.8181	66.0379
22.8788	42.0226
22.9396	11.8332
23.0003	4.58399
23.0611	3.74021
23.1218	3.90654
23.1826	3.41163
23.2433	2.55973
23.304	1.35897
23.3648	1.12774
23.4255	1.18454
23.4863	1.02633
23.547	1.17642
23.6078	1.31435
23.6685	1.21293
23.7292	1.42388
23.79	1.9553
23.8507	2.1419
23.9115	2.05266
23.9722	2.00398
24.033	2.03237
24.0937	2.23115
24.1544	1.71595
24.2152	1.84982
24.2759	1.42388
24.3367	1.2819
24.3974	1.18859
24.4582	1.08312
24.5189	1.01821
24.5796	0.819439
24.6404	0.543588
24.7011	0.701797
24.7619	0.486796
24.8226	0.401606
24.8834	0.543588
24.9441	0.507079
25.0048	0.563872
25.0656	0.571985
25.1263	0.470569
25.1871	0.677457
25.2478	0.344814
25.3086	0.535475
25.3693	0.592268
25.43	0.677457
25.4908	0.413776
25.5515	0.332644
25.6123	0.369153
25.673	0.328587
25.7338	0.503022
25.7945	0.38538
25.8552	0.38538
25.916	0.446229
25.9767	0.417833
26.0375	0.365097
26.0982	0.40972
26.159	0.344814
26.2197	0.450286
26.2804	0.438116
26.3412	0.352927
26.4019	0.434059
26.4627	0.34887
26.5234	0.39755
26.5842	0.365097
26.6449	0.308304
26.7056	0.239341
26.7664	0.478682
26.8271	0.474626
26.8879	0.446229
26.9486	0.340757
27.0094	0.40972
27.0701	0.263681
27.1308	0.490852
27.1916	0.600381
27.2523	0.494909
27.3131	0.839723
27.3738	0.657174
27.4346	1.27784
27.4953	1.5902
27.556	3.22096
27.6168	3.13172
27.6775	3.16823
27.7383	3.11955
27.799	3.80918
27.8598	3.03842
27.9205	1.7119
27.9812	0.953308
28.042	0.389437
28.1027	0.580098
28.1635	0.543588
28.2242	0.381323
28.285	0.507079
28.3457	0.458399
28.4064	0.365097
28.4672	0.438116
28.5279	0.0365097
28.5887	0.356983
28.6494	0.405663
28.7102	0.255568
28.7709	0.507079
28.8316	0.466513
28.8924	0.417833
28.9531	0.320474
29.0139	0.332644
29.0746	0.365097
29.1354	0.454343
29.1961	0.482739
29.2569	0.425946
29.3176	0.588211
29.3783	0.507079
29.4391	0.519249
29.4998	0.576042
29.5606	0.616608
29.6213	0.470569
29.6821	0.567928
29.7428	0.713967
29.8035	0.608495
29.8643	0.413776
29.925	0.523305
29.9858	0.430003
30.0465	0.482739
30.1073	0.3367
30.168	0.36104
30.2287	0.628778
30.2895	0.377267
30.3502	0.434059
30.411	0.803213
30.4717	1.34274
30.5325	3.4887
30.5932	7.15184
30.6539	4.71786
30.7147	2.00398
30.7754	0.649061
30.8362	0.754533
30.8969	0.604438
30.9577	0.507079
31.0184	0.34887
31.0791	0.486796
31.1399	0.413776
31.2006	0.474626
31.2614	0.413776
31.3221	0.393493
31.3829	0.624721
31.4436	0.7951
31.5043	0.539532
31.5651	0.876232
31.6258	1.10746
31.6866	1.15614
31.7473	1.05067
31.8081	1.02633
31.8688	1.15208
31.9295	1.29407
31.9903	1.47256
32.051	1.63888
32.1118	2.0202
32.1725	2.63275
32.2333	3.17229
32.294	4.33248
32.3547	6.72184
32.4155	12.3403
32.4762	27.2687
32.537	46.2334
32.5977	47.8033
32.6585	51.2434
32.7192	63.823
32.7799	72.35
32.8407	51.2961
32.9014	25.7921
32.9622	9.81705
33.0229	5.61843
33.0837	4.17833
33.1444	2.82341
33.2051	2.17435
33.2659	1.75246
33.3266	1.61048
33.3874	1.40765
33.4481	1.09935
33.5089	1.23727
33.5696	1.13991
33.6303	1.33463
33.6911	1.80926
33.7518	1.5618
33.8126	1.39954
33.8733	1.37925
33.9341	1.44822
33.9948	1.32652
34.0555	1.1602
34.1163	1.05067
34.177	1.33869
34.2378	1.26567
34.2985	1.24133
34.3593	1.00199
34.42	1.19671
34.4807	0.977648
34.5415	0.997931
34.6022	1.02227
34.663	1.05067
34.7237	1.00604
34.7845	0.803213
34.8452	0.750477
34.906	0.774816
34.9667	0.912742
35.0274	0.74642
35.0882	0.669344
35.1489	0.738307
35.2097	0.949252
35.2704	0.920855
35.3312	0.7951
35.3919	0.78293
35.4526	0.868119
35.5134	0.7951
35.5741	1.00199
35.6349	0.563872
35.6956	0.640948
35.7564	0.547645
35.8171	0.750477
35.8778	0.77076
35.9386	0.645004
35.9993	0.851892
36.0601	0.632834
36.1208	0.937082
36.1816	0.985761
36.2423	1.46039
36.303	2.4137
36.3638	1.72001
36.4245	1.4685
36.4853	0.928968
36.546	0.600381
36.6068	0.527362
36.6675	0.73425
36.7282	0.677457
36.789	0.42189
36.8497	0.37321
36.9105	0.210945
36.9712	0.494909
37.032	0.551702
37.0927	0.300191
37.1534	0.470569
37.2142	0.547645
37.2749	0.774816
37.3357	0.778873
37.3964	0.74642
37.4572	0.673401
37.5179	0.693684
37.5786	0.973591
37.6394	0.624721
37.7001	0.864062
37.7609	0.681514
37.8216	0.701797
37.8824	0.718024
37.9431	0.888402
38.0038	1.31029
38.0646	1.53746
38.1253	1.96747
38.1861	2.47454
38.2468	3.04247
38.3076	3.83757
38.3683	7.02608
38.429	25.1552
38.4898	78.1834
38.5505	58.1559
38.6113	51.0486
38.672	19.0499
38.7328	9.46818
38.7935	5.64683
38.8542	3.60229
38.915	2.21492
38.9757	1.79709
39.0365	1.3468
39.0972	0.933025
39.158	0.847836
39.2187	0.924912
39.2794	0.868119
39.3402	0.77076
39.4009	0.831609
39.4617	0.70991
39.5224	0.78293
39.5832	0.941138
39.6439	0.681514
39.7046	0.563872
39.7654	0.685571
39.8261	0.576042
39.8869	0.774816
39.9476	0.819439
40.0084	1.01416
40.0691	1.24539
40.1298	1.42793
40.1906	2.17841
40.2513	5.25739
40.3121	11.8089
40.3728	9.32619
40.4336	7.74411
40.4943	3.09927
40.5551	1.57803
40.6158	1.11152
40.6765	0.592268
40.7373	0.705854
40.798	0.559815
40.8588	0.649061
40.9195	0.511135
40.9803	0.515192
41.041	0.279908
41.1017	0.535475
41.1625	0.296134
41.2232	0.470569
41.284	0.34887
41.3447	0.584155
41.4055	0.417833
41.4662	0.36104
41.5269	0.450286
41.5877	0.608495
41.6484	0.503022
41.7092	0.580098
41.7699	0.673401
41.8307	0.730194
41.8914	0.872176
41.9521	0.713967
42.0129	0.75859
42.0736	0.993874
42.1344	0.669344
42.1951	0.689627
42.2559	0.701797
42.3166	0.636891
42.3773	0.730194
42.4381	0.604438
42.4988	0.689627
42.5596	0.507079
42.6203	0.494909
42.6811	0.417833
42.7418	0.40972
42.8025	0.425946
42.8633	0.434059
42.924	0.434059
42.9848	0.498966
43.0455	0.519249
43.1063	0.531419
43.167	0.466513
43.2277	0.539532
43.2885	0.450286
43.3492	0.616608
43.41	0.466513
43.4707	0.235285
43.5315	0.219058
43.5922	0.300191
43.6529	0.38538
43.7137	0.356983
43.7744	0.442173
43.8352	0.304247
43.8959	0.340757
43.9567	0.503022
44.0174	0.430003
44.0781	0.446229
44.1389	0.38538
44.1996	0.283964
44.2604	0.584155
44.3211	0.555758
44.3819	0.645004
44.4426	0.677457
44.5033	0.73425
44.5641	0.754533
44.6248	0.523305
44.6856	0.584155
44.7463	0.632834
44.8071	0.69774
44.8678	0.778873
44.9285	0.551702
44.9893	0.811326
45.05	1.01416
45.1108	0.774816
45.1715	0.973591
45.2323	1.0385
45.293	1.39548
45.3537	1.28595
45.4145	1.31029
45.4752	1.26161
45.536	1.09123
45.5967	0.884345
45.6575	0.981705
45.7182	0.762647
45.7789	0.916799
45.8397	0.888402
45.9004	0.892459
45.9612	0.72208
46.0219	1.09935
46.0827	1.29812
46.1434	1.4969
46.2041	2.0486
46.2649	2.54351
46.3256	3.53738
46.3864	4.77871
46.4471	6.37297
46.5079	14.2023
46.5686	59.3079
46.6294	93.0104
46.6901	63.6891
46.7508	63.7702
46.8116	28.5708
46.8723	15.6789
46.9331	9.43978
46.9938	6.07278
47.0546	4.90447
47.1153	4.46635
47.176	3.8822
47.2368	4.57994
47.2975	5.48051
47.3583	6.88816
47.419	7.80496
47.4798	6.10929
47.5405	4.92475
47.6012	3.37512
47.662	1.82954
47.7227	1.38737
47.7835	1.08312
47.8442	1.08718
47.905	0.961421
47.9657	0.831609
48.0264	0.571985
48.0872	0.624721
48.1479	0.571985
48.2087	0.454343
48.2694	0.596325
48.3302	0.413776
48.3909	0.450286
48.4516	0.490852
48.5124	0.669344
48.5731	0.632834
48.6339	0.608495
48.6946	0.778873
48.7554	0.478682
48.8161	0.750477
48.8768	0.340757
48.9376	0.507079
48.9983	0.616608
49.0591	0.308304
49.1198	0.547645
49.1806	0.417833
49.2413	0.425946
49.302	0.498966
49.3628	0.551702
49.4235	0.74642
49.4843	0.417833
49.545	0.458399
49.6058	0.547645
49.6665	0.417833
49.7272	0.486796
49.788	0.531419
49.8487	0.559815
49.9095	0.567928
49.9702	0.649061
50.031	0.519249
50.0917	0.523305
50.1524	0.446229
50.2132	0.430003
50.2739	0.377267
50.3347	0.531419
50.3954	0.296134
50.4562	0.271794
50.5169	0.381323
50.5776	0.182548
50.6384	0.283964
50.6991	0.478682
50.7599	0.243398
50.8206	0.39755
50.8814	0.438116
50.9421	0.300191
51.0028	0.507079
51.0636	0.584155
51.1243	0.279908
51.1851	0.494909
51.2458	0.438116
51.3066	0.786986
51.3673	1.12774
51.428	3.02219
51.4888	2.67332
51.5495	1.82954
51.6103	1.78086
51.671	0.872176
51.7318	0.689627
51.7925	0.466513
51.8532	0.778873
51.914	0.425946
51.9747	0.308304
52.0355	0.283964
52.0962	0.462456
52.157	0.535475
52.2177	0.37321
52.2785	0.523305
52.3392	0.72208
52.3999	0.742363
52.4607	1.07095
52.5214	2.05266
52.5822	2.25143
52.6429	2.99785
52.7037	2.73417
52.7644	2.22709
52.8251	1.79303
52.8859	1.20482
52.9466	1.07906
53.0074	1.04255
53.0681	1.29812
53.1289	1.11557
53.1896	1.1318
53.2503	1.56586
53.3111	1.07501
53.3718	0.864062
53.4326	0.823496
53.4933	0.653118
53.5541	0.612551
53.6148	0.470569
53.6755	0.328587
53.7363	0.498966
53.797	0.584155
53.8578	0.340757
53.9185	0.470569
53.9793	0.462456
54.04	0.515192
54.1007	0.133869
54.1615	0.458399
54.2222	0.340757
54.283	0.332644
54.3437	0.39755
54.4045	0.478682
54.4652	0.320474
54.5259	0.34887
54.5867	0.571985
54.6474	0.478682
54.7082	0.74642
54.7689	0.855949
54.8297	1.39548
54.8904	3.40351
54.9511	10.9488
55.0119	9.68318
55.0726	6.83137
55.1334	7.6143
55.1941	3.82946
55.2549	2.42992
55.3156	1.79303
55.3763	1.14397
55.4371	1.02633
55.4978	0.957365
55.5586	0.693684
55.6193	0.807269
55.6801	1.00604
55.7408	0.961421
55.8015	0.503022
55.8623	0.949252
55.923	0.519249
55.9838	0.450286
56.0445	0.259624
56.1053	0.685571
56.166	0.288021
56.2267	0.413776
56.2875	0.166322
56.3482	0.470569
56.409	0.462456
56.4697	0.547645
56.5305	0.425946
56.5912	0.507079
56.6519	0.356983
56.7127	0.328587
56.7734	0.434059
56.8342	0.543588
56.8949	0.519249
56.9557	0.430003
57.0164	0.39755
57.0771	0.32453
57.1379	0.369153
57.1986	0.454343
57.2594	0.466513
57.3201	0.40972
57.3809	0.567928
57.4416	0.555758
57.5023	0.490852
57.5631	0.669344
57.6238	0.604438
57.6846	0.750477
57.7453	0.827553
57.8061	1.06284
57.8668	1.6186
57.9275	2.10133
57.9883	2.79502
58.049	4.35682
58.1098	12.0117
58.1705	20.4008
58.2313	16.8878
58.292	16.5389
58.3528	14.1455
58.4135	10.4702
58.4742	7.18835
58.535	6.5758
58.5957	7.26137
58.6565	7.93477
58.7172	6.56768
58.778	5.20466
58.8387	4.65296
58.8994	2.55162
58.9602	1.87011
59.0209	1.17237
59.0817	0.843779
59.1424	0.726137
59.2032	0.604438
59.2639	0.689627
59.3246	0.312361
59.3854	0.531419
59.4461	0.547645
59.5069	0.466513
59.5676	0.292077
59.6284	0.442173
59.6891	0.425946
59.7498	0.503022
59.8106	0.328587
59.8713	0.344814
59.9321	0.271794
59.9928	0.186605
60.0536	0.227171
60.1143	0.405663
60.175	0.442173
60.2358	0.612551
60.2965	0.900572
60.3573	0.819439
60.418	1.16831
60.4788	1.32652
60.5395	1.08718
60.6002	0.77076
60.661	0.7951
60.7217	0.446229
60.7825	0.389437
60.8432	0.474626
60.904	0.470569
60.9647	0.308304
61.0254	0.332644
61.0862	0.340757
61.1469	0.425946
61.2077	0.466513
61.2684	0.507079
61.3292	0.365097
61.3899	0.340757
61.4506	0.539532
61.5114	0.283964
61.5721	0.312361
61.6329	0.215001
61.6936	0.304247
61.7544	0.40972
61.8151	0.381323
61.8758	0.40972
61.9366	0.608495
61.9973	0.811326
62.0581	1.59426
62.1188	1.89039
62.1796	1.73218
62.2403	1.92284
62.301	1.7768
62.3618	1.44416
62.4225	1.1318
62.4833	1.54558
62.544	1.46444
62.6048	1.91473
62.6655	1.93501
62.7262	1.4969
62.787	1.39548
62.8477	0.924912
62.9085	0.645004
62.9692	0.40972
63.03	0.458399
63.0907	0.430003
63.1514	0.271794
63.2122	0.210945
63.2729	0.3367
63.3337	0.308304
63.3944	0.194718
63.4552	0.381323
63.5159	0.109529
63.5766	0.267738
63.6374	0.515192
63.6981	0.438116
63.7589	0.417833
63.8196	0.454343
63.8804	0.292077
63.9411	0.438116
64.0019	0.37321
64.0626	0.288021
64.1233	0.178492
64.1841	0.271794
64.2448	0.133869
64.3056	0.129812
64.3663	0.215001
64.4271	0.283964
64.4878	0.162265
64.5485	0
64.6093	0.235285
64.67	0.235285
64.7308	0.275851
64.7915	0.247454
64.8523	0.365097
64.913	0.279908
64.9737	0.356983
65.0345	0.462456
65.0952	0.275851
65.156	0.223115
65.2167	0.227171
65.2775	0.474626
65.3382	0.381323
65.3989	0.42189
65.4597	1.12774
65.5204	2.08511
65.5812	1.17237
65.6419	1.04255
65.7027	1.05878
65.7634	0.78293
65.8241	0.3367
65.8849	0.486796
65.9456	0.356983
66.0064	0.219058
66.0671	0.141982
66.1279	0.0527362
66.1886	0.113586
66.2493	0.219058
66.3101	0.267738
66.3708	0.300191
66.4316	0.077076
66.4923	0.251511
66.5531	0.275851
66.6138	0.243398
66.6745	0.365097
66.7353	0.239341
66.796	0.288021
66.8568	0.117642
66.9175	0.198775
66.9783	0.219058
67.039	0.438116
67.0997	0.300191
67.1605	0.210945
67.2212	0.470569
67.282	0.369153
67.3427	0.129812
67.4035	0.458399
67.4642	0.503022
67.5249	0.32453
67.5857	0.705854
67.6464	0.653118
67.7072	0.478682
67.7679	0.450286
67.8287	0.571985
67.8894	0.888402
67.9501	0.7951
68.0109	1.31029
68.0716	2.05266
68.1324	3.39134
68.1931	2.98568
68.2539	2.48266
68.3146	2.59219
68.3753	2.73011
68.4361	2.57596
68.4968	3.26964
68.5576	4.73814
68.6183	7.68731
68.6791	8.43373
68.7398	8.77855
68.8005	7.95911
68.8613	5.88211
68.922	5.1722
68.9828	3.41568
69.0435	2.02426
69.1043	1.32652
69.165	0.957365
69.2257	0.653118
69.2865	0.511135
69.3472	0.628778
69.408	0.40972
69.4687	0.507079
69.5295	0.219058
69.5902	0.3367
69.6509	0.381323
69.7117	0.255568
69.7724	0.434059
69.8332	0.235285
69.8939	0.210945
69.9547	0.38538
70.0154	0.154152
70.0762	0.320474
70.1369	0.267738
70.1976	0.39755
70.2584	0.308304
70.3191	0.170378
70.3799	0.162265
70.4406	0.178492
70.5014	0.170378
70.5621	0.194718
70.6228	0.344814
70.6836	0.182548
70.7443	0.255568
70.8051	0.247454
70.8658	0.316417
70.9266	0.235285
70.9873	0.3367
71.048	0.07301935
71.1088	0.247454
71.1695	0.292077
71.2303	0.356983
71.291	0.210945
71.3518	0.219058
71.4125	0.283964
71.4732	0.37321
71.534	0.231228
71.5947	0.07301935
71.6555	0.150095
71.7162	0.198775
71.777	0.077076
71.8377	0.478682
71.8984	0.271794
71.9592	0.133869
72.0199	0.304247
72.0807	0.0405663
72.1414	0.186605
72.2022	0.263681
72.2629	0.0851892
72.3236	0.227171
72.3844	0.182548
72.4451	0.219058
72.5059	0.494909
72.5666	0.507079
72.6274	0.34887
72.6881	0.799156
72.7488	2.02426
72.8096	3.152
72.8703	2.2352
72.9311	1.69161
72.9918	2.24332
73.0526	2.31228
73.1133	1.42793
73.174	0.937082
73.2348	0.819439
73.2955	0.831609
73.3563	0.876232
73.417	1.15614
73.4778	1.51312
73.5385	1.39142
73.5992	0.754533
73.66	0.920855
73.7207	0.835666
73.7815	0.616608
73.8422	0.308304
73.903	0.377267
73.9637	0.129812
74.0244	0.356983
74.0852	0.450286
74.1459	0.34887
74.2067	0.389437
74.2674	0.320474
74.3282	0.304247
74.3889	0.442173
74.4496	0.320474
74.5104	0.117642
74.5711	0.113586
74.6319	0.275851
74.6926	0.0851892
74.7534	0.381323
74.8141	0.267738
74.8748	0.38538
74.9356	0.563872
74.9963	0.742363
75.0571	0.851892
75.1178	0.588211
75.1786	0.673401
75.2393	0.730194
75.3	0.486796
75.3608	0.616608
75.4215	0.519249
75.4823	0.498966
75.543	0.515192
75.6038	0.750477
75.6645	0.462456
75.7253	0.490852
75.786	0.251511
75.8467	0.202832
75.9075	0.223115
75.9682	0.263681
76.029	0.369153
76.0897	0.158209
76.1505	0.206888
76.2112	0.178492
76.2719	0.377267
76.3327	0.215001
76.3934	0.32453
76.4542	0.271794
76.5149	0.198775
76.5757	0.288021
76.6364	0.267738
76.6971	0.247454
76.7579	0.219058
76.8186	0.40972
76.8794	0.369153
76.9401	0.243398
77.0009	0.596325
77.0616	0.527362
77.1223	0.438116
77.1831	0.70991
77.2438	0.482739
77.3046	0.807269
77.3653	1.1602
77.4261	2.29605
77.4868	3.16417
77.5475	4.18644
77.6083	4.26352
77.669	4.16616
77.7298	3.75644
77.7905	4.07691
77.8513	3.85786
77.912	2.61653
77.9727	2.15001
78.0335	1.94718
78.0942	1.23322
78.155	0.969535
78.2157	1.12774
78.2765	0.957365
78.3372	0.799156
78.3979	0.778873
78.4587	1.01416
78.5194	0.900572
78.5802	1.33057
78.6409	1.24133
78.7017	1.59831
78.7624	1.93501
78.8231	2.17435
78.8839	1.76463
78.9446	1.50907
79.0054	1.30218
79.0661	1.23322
79.1269	0.941138
79.1876	0.559815
79.2483	0.592268
79.3091	0.555758
79.3698	0.36104
79.4306	0.219058
79.4913	0.320474
79.5521	0.194718
79.6128	0.279908
79.6735	0.503022
79.7343	0.539532
79.795	0.466513
79.8558	0.478682
79.9165	0.470569
79.9773	0.434059
79.9975	0.430003