File: XRD_N2_1.txt
10.0013	1.13849
10.0621	1.12567
10.1228	1.12165
10.1835	1.12299
10.2443	1.11438
10.305	1.10826
10.3658	1.11591
10.4265	1.12184
10.4873	1.1119
10.548	1.10578
10.6087	1.13217
10.6695	1.09564
10.7302	1.10865
10.791	1.1031
10.8517	1.10845
10.9125	1.10157
10.9732	1.10635
11.0339	1.11171
11.0947	1.10119
11.1554	1.09449
11.2162	1.09813
11.2769	1.10425
11.3377	1.09411
11.3984	1.09143
11.4592	1.08703
11.5199	1.07288
11.5806	1.08799
11.6414	1.07441
11.7021	1.079
11.7629	1.08454
11.8236	1.0746
11.8844	1.07249
11.9451	1.0746
12.0058	1.06178
12.0666	1.06503
12.1273	1.06809
12.1881	1.05968
12.2488	1.06121
12.3096	1.06637
12.3703	1.05241
12.431	1.04954
12.4918	1.05643
12.5525	1.04858
12.6133	1.05777
12.674	1.05987
12.7348	1.04858
12.7955	1.05031
12.8562	1.04916
12.917	1.04055
12.9777	1.04017
13.0385	1.04151
13.0992	1.03213
13.16	1.04151
13.2207	1.03003
13.2814	1.03883
13.3422	1.02506
13.4029	1.04514
13.4637	1.03864
13.5244	1.02946
13.5852	1.0373
13.6459	1.04055
13.7066	1.03768
13.7674	1.04132
13.8281	1.0264
13.8889	1.02735
13.9496	1.03099
14.0104	1.02888
14.0711	1.03634
14.1318	1.03118
14.1926	1.02181
14.2533	1.02659
14.3141	1.03481
14.3748	1.02831
14.4356	1.03998
14.4963	1.03902
14.557	1.05432
14.6178	1.05509
14.6785	1.05757
14.7393	1.05241
14.8	1.04246
14.8608	1.03347
14.9215	1.01702
14.9822	1.0285
15.043	1.01511
15.1037	1.01014
15.1645	1.00899
15.2252	1.01875
15.286	1.02831
15.3467	1.01817
15.4074	1.02372
15.4682	1.0153
15.5289	1.01721
15.5897	1.01549
15.6504	1.00937
15.7112	1.01549
15.7719	1.01588
15.8326	1.00727
15.8934	1.01262
15.9541	1.02257
16.0149	1.01435
16.0756	1.00956
16.1364	1.01875
16.1971	1.01721
16.2578	1.02028
16.3186	1.00937
16.3793	1.01014
16.4401	1.01454
16.5008	1.02353
16.5616	1.00995
16.6223	1.0176
16.683	1.01224
16.7438	1.01377
16.8045	1.01626
16.8653	1.0176
16.926	1.01339
16.9868	1.01415
17.0475	1.01033
17.1082	1.01339
17.169	1.01396
17.2297	1.00268
17.2905	1.01588
17.3512	1.01167
17.412	1.01186
17.4727	1.01702
17.5335	1.01588
17.5942	1.01721
17.6549	1.01473
17.7157	1.01052
17.7764	1.01052
17.8372	1.01167
17.8979	1.00822
17.9587	1.01262
18.0194	1.0132
18.0801	1.01358
18.1409	1.01779
18.2016	1.02047
18.2624	1.00746
18.3231	1.02104
18.3839	1.01224
18.4446	1.0132
18.5053	1.01626
18.5661	1.01224
18.6268	1.01989
18.6876	1.01473
18.7483	1.01396
18.8091	1.00727
18.8698	1.00593
18.9305	1.00976
18.9913	1.01167
19.052	1.01282
19.1128	1.01702
19.1735	1.01702
19.2343	1.02238
19.295	1.01473
19.3557	1.02066
19.4165	1.00937
19.4772	1.01262
19.538	1.02678
19.5987	1.01951
19.6595	1.02314
19.7202	1.01932
19.7809	1.02544
19.8417	1.02161
19.9024	1.01626
19.9632	1.0132
20.0239	1.02066
20.0847	1.02028
20.1454	1.01702
20.2061	1.01875
20.2669	1.01798
20.3276	1.0065
20.3884	1.0153
20.4491	1.01014
20.5099	1.01301
20.5706	1.01454
20.6313	1.02238
20.6921	1.02238
20.7528	1.01951
20.8136	1.01894
20.8743	1.01721
20.9351	1.01932
20.9958	1.02257
21.0565	1.01262
21.1173	1.00956
21.178	1.02659
21.2388	1.01415
21.2995	1.00612
21.3603	1.02104
21.421	1.01683
21.4817	1.01109
21.5425	1.02028
21.6032	1.01339
21.664	1.00612
21.7247	1.02008
21.7855	1.0132
21.8462	1.01626
21.9069	1.02047
21.9677	1.03864
22.0284	1.04533
22.0892	1.07766
22.1499	1.09105
22.2107	1.10386
22.2714	1.10348
22.3321	1.08015
22.3929	1.06044
22.4536	1.05184
22.5144	1.06025
22.5751	1.07288
22.6359	1.09468
22.6966	1.08665
22.7573	1.07881
22.8181	1.05872
22.8788	1.05471
22.9396	1.04342
23.0003	1.03405
23.0611	1.02314
23.1218	1.02391
23.1826	1.03826
23.2433	1.03347
23.304	1.0241
23.3648	1.0329
23.4255	1.04323
23.4863	1.04399
23.547	1.04304
23.6078	1.04227
23.6685	1.05375
23.7292	1.03328
23.79	1.04438
23.8507	1.035
23.9115	1.02582
23.9722	1.03481
24.033	1.02028
24.0937	1.02812
24.1544	1.03443
24.2152	1.02334
24.2759	1.0241
24.3367	1.02487
24.3974	1.02429
24.4582	1.03022
24.5189	1.02601
24.5796	1.02429
24.6404	1.03003
24.7011	1.01607
24.7619	1.02257
24.8226	1.0285
24.8834	1.02104
24.9441	1.01932
25.0048	1.01454
25.0656	1.02334
25.1263	1.02219
25.1871	1.01511
25.2478	1.01683
25.3086	1.02028
25.3693	1.01511
25.43	1.01301
25.4908	1.02582
25.5515	1.02066
25.6123	1.02181
25.673	1.02047
25.7338	1.03022
25.7945	1.02621
25.8552	1.022
25.916	1.02238
25.9767	1.01186
26.0375	1.01511
26.0982	1.01358
26.159	1.0285
26.2197	1.02085
26.2804	1.02104
26.3412	1.01396
26.4019	1.03175
26.4627	1.01913
26.5234	1.03099
26.5842	1.02257
26.6449	1.022
26.7056	1.03309
26.7664	1.0306
26.8271	1.02907
26.8879	1.02525
26.9486	1.03634
27.0094	1.04361
27.0701	1.07288
27.1308	1.09908
27.1916	1.13428
27.2523	1.1316
27.3131	1.1295
27.3738	1.09755
27.4346	1.08301
27.4953	1.06025
27.556	1.04514
27.6168	1.03902
27.6775	1.0417
27.7383	1.03787
27.799	1.04954
27.8598	1.04361
27.9205	1.0526
27.9812	1.04514
28.042	1.03749
28.1027	1.04265
28.1635	1.03462
28.2242	1.03328
28.285	1.0417
28.3457	1.04438
28.4064	1.04725
28.4672	1.04667
28.5279	1.05375
28.5887	1.05394
28.6494	1.06178
28.7102	1.06905
28.7709	1.06484
28.8316	1.05585
28.8924	1.05547
28.9531	1.06236
29.0139	1.06025
29.0746	1.06255
29.1354	1.05796
29.1961	1.07326
29.2569	1.09487
29.3176	1.10176
29.3783	1.1469
29.4391	1.18057
29.4998	1.17884
29.5606	1.15972
29.6213	1.12777
29.6821	1.09698
29.7428	1.07001
29.8035	1.06044
29.8643	1.05987
29.925	1.06044
29.9858	1.08206
30.0465	1.09813
30.1073	1.13715
30.168	1.14633
30.2287	1.1295
30.2895	1.11018
30.3502	1.10291
30.411	1.09239
30.4717	1.1008
30.5325	1.0987
30.5932	1.10482
30.6539	1.09334
30.7147	1.08531
30.7754	1.07823
30.8362	1.06465
30.8969	1.06255
30.9577	1.06312
31.0184	1.06809
31.0791	1.05375
31.1399	1.08416
31.2006	1.08856
31.2614	1.08053
31.3221	1.09411
31.3829	1.09621
31.4436	1.07938
31.5043	1.08741
31.5651	1.10731
31.6258	1.12643
31.6866	1.12452
31.7473	1.13141
31.8081	1.15761
31.8688	1.22379
31.9295	1.36611
31.9903	1.64441
32.051	1.88657
32.1118	1.99847
32.1725	1.93898
32.2333	1.79667
32.294	1.67636
32.3547	1.61955
32.4155	1.61438
32.4762	1.58703
32.537	1.5
32.5977	1.37835
32.6585	1.25077
32.7192	1.18095
32.7799	1.12089
32.8407	1.1119
32.9014	1.09373
32.9622	1.07211
33.0229	1.06217
33.0837	1.05662
33.1444	1.04725
33.2051	1.05853
33.2659	1.05451
33.3266	1.05184
33.3874	1.05145
33.4481	1.05451
33.5089	1.05031
33.5696	1.05738
33.6303	1.057
33.6911	1.0549
33.7518	1.05968
33.8126	1.06236
33.8733	1.05968
33.9341	1.05681
33.9948	1.05126
34.0555	1.04686
34.1163	1.05528
34.177	1.03386
34.2378	1.04055
34.2985	1.03806
34.3593	1.04572
34.42	1.04782
34.4807	1.04457
34.5415	1.04705
34.6022	1.05279
34.663	1.04973
34.7237	1.05547
34.7845	1.04323
34.8452	1.0482
34.906	1.04399
34.9667	1.04648
35.0274	1.0505
35.0882	1.05681
35.1489	1.05375
35.2097	1.04782
35.2704	1.06427
35.3312	1.06178
35.3919	1.08168
35.4526	1.07192
35.5134	1.07708
35.5741	1.09334
35.6349	1.09526
35.6956	1.11936
35.7564	1.12031
35.8171	1.13944
35.8778	1.12357
35.9386	1.11611
35.9993	1.10922
36.0601	1.09507
36.1208	1.07995
36.1816	1.07422
36.2423	1.07307
36.303	1.06523
36.3638	1.07058
36.4245	1.06982
36.4853	1.06676
36.546	1.06848
36.6068	1.0767
36.6675	1.06848
36.7282	1.07785
36.789	1.06848
36.8497	1.07613
36.9105	1.06197
36.9712	1.06446
37.032	1.0593
37.0927	1.05566
37.1534	1.06695
37.2142	1.06044
37.2749	1.0526
37.3357	1.05528
37.3964	1.06886
37.4572	1.07976
37.5179	1.12242
37.5786	1.15647
37.6394	1.18688
37.7001	1.21748
37.7609	1.21117
37.8216	1.22609
37.8824	1.228
37.9431	1.22341
38.0038	1.19893
38.0646	1.19109
38.1253	1.15914
38.1861	1.12395
38.2468	1.09813
38.3076	1.07116
38.3683	1.06274
38.429	1.05241
38.4898	1.04992
38.5505	1.04151
38.6113	1.04323
38.672	1.06025
38.7328	1.05318
38.7935	1.05413
38.8542	1.05337
38.915	1.04361
38.9757	1.04132
39.0365	1.03596
39.0972	1.03175
39.158	1.04189
39.2187	1.03118
39.2794	1.02965
39.3402	1.0394
39.4009	1.04342
39.4617	1.04227
39.5224	1.05298
39.5832	1.07441
39.6439	1.07154
39.7046	1.10616
39.7654	1.13695
39.8261	1.14977
39.8869	1.1578
39.9476	1.12796
40.0084	1.0966
40.0691	1.07173
40.1298	1.05853
40.1906	1.05872
40.2513	1.0702
40.3121	1.08129
40.3728	1.08531
40.4336	1.09124
40.4943	1.0767
40.5551	1.0614
40.6158	1.06006
40.6765	1.04591
40.7373	1.04514
40.798	1.04227
40.8588	1.04686
40.9195	1.04361
40.9803	1.04744
41.041	1.05069
41.1017	1.057
41.1625	1.03959
41.2232	1.04533
41.284	1.04878
41.3447	1.05528
41.4055	1.04476
41.4662	1.04935
41.5269	1.06217
41.5877	1.05471
41.6484	1.0593
41.7092	1.06121
41.7699	1.05241
41.8307	1.05298
41.8914	1.057
41.9521	1.05834
42.0129	1.05509
42.0736	1.05528
42.1344	1.0526
42.1951	1.05451
42.2559	1.057
42.3166	1.05337
42.3773	1.0482
42.4381	1.05145
42.4988	1.04074
42.5596	1.05011
42.6203	1.04916
42.6811	1.04265
42.7418	1.05222
42.8025	1.03271
42.8633	1.03386
42.924	1.0394
42.9848	1.04246
43.0455	1.04476
43.1063	1.04744
43.167	1.04763
43.2277	1.05413
43.2885	1.04648
43.3492	1.05471
43.41	1.04591
43.4707	1.05451
43.5315	1.04801
43.5922	1.04304
43.6529	1.03902
43.7137	1.03749
43.7744	1.03386
43.8352	1.02754
43.8959	1.04189
43.9567	1.04285
44.0174	1.03366
44.0781	1.0352
44.1389	1.0482
44.1996	1.06044
44.2604	1.06331
44.3211	1.05604
44.3819	1.05509
44.4426	1.0526
44.5033	1.05337
44.5641	1.05107
44.6248	1.04763
44.6856	1.06293
44.7463	1.06217
44.8071	1.06274
44.8678	1.06312
44.9285	1.06159
44.9893	1.05777
45.05	1.06083
45.1108	1.07555
45.1715	1.06771
45.2323	1.0899
45.293	1.0834
45.3537	1.08091
45.4145	1.07422
45.4752	1.07785
45.536	1.0964
45.5967	1.1163
45.6575	1.1205
45.7182	1.13887
45.7789	1.13275
45.8397	1.12165
45.9004	1.11113
45.9612	1.08512
46.0219	1.08034
46.0827	1.0723
46.1434	1.07039
46.2041	1.06867
46.2649	1.07001
46.3256	1.07536
46.3864	1.08588
46.4471	1.09258
46.5079	1.12777
46.5686	1.18267
46.6294	1.25708
46.6901	1.30891
46.7508	1.37892
46.8116	1.32326
46.8723	1.24713
46.9331	1.16641
46.9938	1.1031
47.0546	1.07976
47.1153	1.05528
47.176	1.04667
47.2368	1.04667
47.2975	1.05528
47.3583	1.05643
47.419	1.04801
47.4798	1.04648
47.5405	1.05069
47.6012	1.05719
47.662	1.0593
47.7227	1.05088
47.7835	1.04246
47.8442	1.05164
47.905	1.04399
47.9657	1.04419
48.0264	1.04208
48.0872	1.03998
48.1479	1.05662
48.2087	1.05318
48.2694	1.05126
48.3302	1.05279
48.3909	1.04323
48.4516	1.03328
48.5124	1.02831
48.5731	1.03366
48.6339	1.0264
48.6946	1.03979
48.7554	1.02888
48.8161	1.02793
48.8768	1.02563
48.9376	1.02659
48.9983	1.03577
49.0591	1.03826
49.1198	1.03405
49.1806	1.03233
49.2413	1.03826
49.302	1.03213
49.3628	1.04036
49.4235	1.04112
49.4843	1.03711
49.545	1.02697
49.6058	1.02678
49.6665	1.02716
49.7272	1.03347
49.788	1.02104
49.8487	1.03328
49.9095	1.03099
49.9702	1.02831
50.031	1.03328
50.0917	1.03175
50.1524	1.03233
50.2132	1.0306
50.2739	1.03424
50.3347	1.03213
50.3954	1.04323
50.4562	1.04419
50.5169	1.05222
50.5776	1.06599
50.6384	1.07422
50.6991	1.114
50.7599	1.10597
50.8206	1.10138
50.8814	1.09851
50.9421	1.0834
51.0028	1.06312
51.0636	1.06389
51.1243	1.04419
51.1851	1.0438
51.2458	1.04132
51.3066	1.04132
51.3673	1.04801
51.428	1.06829
51.4888	1.05222
51.5495	1.06255
51.6103	1.05968
51.671	1.05145
51.7318	1.04552
51.7925	1.04457
51.8532	1.04801
51.914	1.04323
51.9747	1.0505
52.0355	1.0635
52.0962	1.06924
52.157	1.06121
52.2177	1.05318
52.2785	1.05566
52.3392	1.05279
52.3999	1.05757
52.4607	1.06446
52.5214	1.06102
52.5822	1.06656
52.6429	1.06293
52.7037	1.06886
52.7644	1.0526
52.8251	1.05432
52.8859	1.04208
52.9466	1.04705
53.0074	1.04858
53.0681	1.04017
53.1289	1.03596
53.1896	1.04208
53.2503	1.03806
53.3111	1.0373
53.3718	1.03979
53.4326	1.03749
53.4933	1.03826
53.5541	1.04285
53.6148	1.04227
53.6755	1.04323
53.7363	1.05738
53.797	1.06943
53.8578	1.08321
53.9185	1.08512
53.9793	1.09755
54.04	1.08512
54.1007	1.0834
54.1615	1.08703
54.2222	1.06656
54.283	1.04916
54.3437	1.04304
54.4045	1.04093
54.4652	1.03386
54.5259	1.03998
54.5867	1.04055
54.6474	1.04112
54.7082	1.04916
54.7689	1.05757
54.8297	1.057
54.8904	1.06637
54.9511	1.07555
55.0119	1.07862
55.0726	1.08435
55.1334	1.09047
55.1941	1.08015
55.2549	1.0723
55.3156	1.05624
55.3763	1.05164
55.4371	1.0438
55.4978	1.0482
55.5586	1.03577
55.6193	1.03386
55.6801	1.0373
55.7408	1.03405
55.8015	1.02563
55.8623	1.03711
55.923	1.02257
55.9838	1.03271
56.0445	1.03118
56.1053	1.02946
56.166	1.035
56.2267	1.0329
56.2875	1.03347
56.3482	1.0329
56.409	1.04246
56.4697	1.03615
56.5305	1.04438
56.5912	1.04686
56.6519	1.03979
56.7127	1.03749
56.7734	1.0329
56.8342	1.04457
56.8949	1.04629
56.9557	1.0482
57.0164	1.05968
57.0771	1.07249
57.1379	1.07995
57.1986	1.11553
57.2594	1.13944
57.3201	1.13925
57.3809	1.15685
57.4416	1.15379
57.5023	1.12969
57.5631	1.11171
57.6238	1.10616
57.6846	1.10291
57.7453	1.1249
57.8061	1.16239
57.8668	1.23011
57.9275	1.30031
57.9883	1.33512
58.049	1.33282
58.1098	1.27735
58.1705	1.24732
58.2313	1.16526
58.292	1.13389
58.3528	1.10157
58.4135	1.08875
58.4742	1.07154
58.535	1.06963
58.5957	1.05796
58.6565	1.07422
58.7172	1.0702
58.778	1.06943
58.8387	1.05949
58.8994	1.06178
58.9602	1.05509
59.0209	1.04323
59.0817	1.04533
59.1424	1.04839
59.2032	1.06064
59.2639	1.07116
59.3246	1.07383
59.3854	1.07402
59.4461	1.07173
59.5069	1.0723
59.5676	1.07154
59.6284	1.0614
59.6891	1.05394
59.7498	1.05757
59.8106	1.0394
59.8713	1.04189
59.9321	1.04495
59.9928	1.0352
60.0536	1.03979
60.1143	1.0373
60.175	1.035
60.2358	1.02907
60.2965	1.035
60.3573	1.03137
60.418	1.03041
60.4788	1.04399
60.5395	1.04093
60.6002	1.0417
60.661	1.03845
60.7217	1.04227
60.7825	1.0308
60.8432	1.04858
60.904	1.04399
60.9647	1.04591
61.0254	1.05853
61.0862	1.06274
61.1469	1.06217
61.2077	1.06121
61.2684	1.06542
61.3292	1.05891
61.3899	1.05356
61.4506	1.06236
61.5114	1.07881
61.5721	1.1031
61.6329	1.11132
61.6936	1.12682
61.7544	1.1425
61.8151	1.12758
61.8758	1.13466
61.9366	1.12796
61.9973	1.10826
62.0581	1.10176
62.1188	1.08875
62.1796	1.0767
62.2403	1.06121
62.301	1.06312
62.3618	1.04667
62.4225	1.04457
62.4833	1.04208
62.544	1.03233
62.6048	1.04112
62.6655	1.04055
62.7262	1.03883
62.787	1.03558
62.8477	1.03806
62.9085	1.05528
62.9692	1.03309
63.03	1.04151
63.0907	1.03596
63.1514	1.02601
63.2122	1.03462
63.2729	1.02946
63.3337	1.02372
63.3944	1.03864
63.4552	1.0308
63.5159	1.02984
63.5766	1.03003
63.6374	1.02621
63.6981	1.02601
63.7589	1.03558
63.8196	1.0352
63.8804	1.02563
63.9411	1.03673
64.0019	1.03405
64.0626	1.03386
64.1233	1.02716
64.1841	1.0373
64.2448	1.04093
64.3056	1.04476
64.3663	1.04916
64.4271	1.06083
64.4878	1.06924
64.5485	1.0723
64.6093	1.0591
64.67	1.06963
64.7308	1.06025
64.7915	1.05604
64.8523	1.04514
64.913	1.03711
64.9737	1.03481
65.0345	1.03347
65.0952	1.04572
65.156	1.03252
65.2167	1.02391
65.2775	1.0241
65.3382	1.02467
65.3989	1.02563
65.4597	1.02582
65.5204	1.02984
65.5812	1.03615
65.6419	1.04265
65.7027	1.04036
65.7634	1.03252
65.8241	1.03979
65.8849	1.04495
65.9456	1.04017
66.0064	1.03003
66.0671	1.03328
66.1279	1.0285
66.1886	1.03443
66.2493	1.03577
66.3101	1.0329
66.3708	1.02085
66.4316	1.03366
66.4923	1.02372
66.5531	1.03366
66.6138	1.03328
66.6745	1.04878
66.7353	1.0373
66.796	1.04323
66.8568	1.04227
66.9175	1.04323
66.9783	1.03883
67.039	1.0482
67.0997	1.03692
67.1605	1.04438
67.2212	1.0482
67.282	1.05987
67.3427	1.06733
67.4035	1.0964
67.4642	1.09679
67.5249	1.11037
67.5857	1.13007
67.6464	1.12873
67.7072	1.11438
67.7679	1.10998
67.8287	1.10807
67.8894	1.07613
67.9501	1.06982
68.0109	1.0526
68.0716	1.06561
68.1324	1.0505
68.1931	1.0591
68.2539	1.07517
68.3146	1.09507
68.3753	1.10673
68.4361	1.10559
68.4968	1.10004
68.5576	1.09908
68.6183	1.07441
68.6791	1.05891
68.7398	1.05375
68.8005	1.04189
68.8613	1.04361
68.922	1.04304
68.9828	1.03634
69.0435	1.0373
69.1043	1.03481
69.165	1.03481
69.2257	1.03424
69.2865	1.03328
69.3472	1.03424
69.408	1.02314
69.4687	1.02831
69.5295	1.02888
69.5902	1.0306
69.6509	1.03041
69.7117	1.02334
69.7724	1.03424
69.8332	1.03615
69.8939	1.04399
69.9547	1.04438
70.0154	1.03826
70.0762	1.03156
70.1369	1.02812
70.1976	1.02506
70.2584	1.02391
70.3191	1.03118
70.3799	1.0373
70.4406	1.02735
70.5014	1.03481
70.5621	1.02716
70.6228	1.03233
70.6836	1.03252
70.7443	1.03558
70.8051	1.02793
70.8658	1.02946
70.9266	1.03213
70.9873	1.03252
71.048	1.02716
71.1088	1.03213
71.1695	1.03309
71.2303	1.03596
71.291	1.04055
71.3518	1.02621
71.4125	1.0306
71.4732	1.03481
71.534	1.03156
71.5947	1.03883
71.6555	1.03328
71.7162	1.04725
71.777	1.04629
71.8377	1.04399
71.8984	1.03386
71.9592	1.04017
72.0199	1.04304
72.0807	1.04648
72.1414	1.03883
72.2022	1.03615
72.2629	1.03998
72.3236	1.0417
72.3844	1.03099
72.4451	1.03692
72.5059	1.04342
72.5666	1.04323
72.6274	1.03386
72.6881	1.04074
72.7488	1.0417
72.8096	1.04093
72.8703	1.04093
72.9311	1.03826
72.9918	1.04935
73.0526	1.04265
73.1133	1.04495
73.174	1.04533
73.2348	1.04954
73.2955	1.0526
73.3563	1.04782
73.417	1.05069
73.4778	1.05069
73.5385	1.04744
73.5992	1.04533
73.66	1.04208
73.7207	1.04495
73.7815	1.03615
73.8422	1.035
73.903	1.04495
73.9637	1.03921
74.0244	1.04265
74.0852	1.04552
74.1459	1.04744
74.2067	1.06044
74.2674	1.06733
74.3282	1.06542
74.3889	1.05719
74.4496	1.04992
74.5104	1.05184
74.5711	1.05318
74.6319	1.05471
74.6926	1.04151
74.7534	1.03749
74.8141	1.04246
74.8748	1.04189
74.9356	1.04055
74.9963	1.0373
75.0571	1.04036
75.1178	1.04629
75.1786	1.04093
75.2393	1.04725
75.3	1.04801
75.3608	1.04438
75.4215	1.04074
75.4823	1.03826
75.543	1.03462
75.6038	1.03806
75.6645	1.03309
75.7253	1.02869
75.786	1.04151
75.8467	1.03405
75.9075	1.03462
75.9682	1.03768
76.029	1.03998
76.0897	1.03902
76.1505	1.04055
76.2112	1.03979
76.2719	1.04419
76.3327	1.04227
76.3934	1.03443
76.4542	1.03366
76.5149	1.03022
76.5757	1.03692
76.6364	1.03156
76.6971	1.02123
76.7579	1.02621
76.8186	1.03252
76.8794	1.03347
76.9401	1.04074
77.0009	1.03022
77.0616	1.03634
77.1223	1.03003
77.1831	1.04265
77.2438	1.0417
77.3046	1.03118
77.3653	1.04189
77.4261	1.03022
77.4868	1.04686
77.5475	1.05069
77.6083	1.05451
77.669	1.07689
77.7298	1.08799
77.7905	1.11706
77.8513	1.11247
77.912	1.12223
77.9727	1.13447
78.0335	1.1119
78.0942	1.10291
78.155	1.0834
78.2157	1.07192
78.2765	1.06676
78.3372	1.05107
78.3979	1.05088
78.4587	1.03386
78.5194	1.0461
78.5802	1.04342
78.6409	1.04533
78.7017	1.03653
78.7624	1.03175
78.8231	1.03692
78.8839	1.04438
78.9446	1.0505
79.0054	1.04858
79.0661	1.0505
79.1269	1.04705
79.1876	1.05318
79.2483	1.0526
79.3091	1.04572
79.3698	1.05011
79.4306	1.03864
79.4913	1.03328
79.5521	1.03806
79.6128	1.0329
79.6735	1.0306
79.7343	1.02907
79.795	1.03921
79.8558	1.02066
79.9165	1.03386
79.9773	1.03405
79.9975	1.03156