File: XRD_O2_1.txt
10.0013	0.0935053
10.0621	0.0941138
10.1228	0.0922883
10.1835	0.0903006
10.2443	0.0927751
10.305	0.0920449
10.3658	0.0991035
10.4265	0.0934648
10.4873	0.0973997
10.548	0.100118
10.6087	0.0952497
10.6695	0.100158
10.7302	0.0986978
10.791	0.100483
10.8517	0.101375
10.9125	0.102633
10.9732	0.102146
11.0339	0.101903
11.0947	0.101375
11.1554	0.103322
11.2162	0.103931
11.2769	0.100239
11.3377	0.102511
11.3984	0.103525
11.4592	0.101294
11.5199	0.104539
11.5806	0.109164
11.6414	0.107014
11.7021	0.108312
11.7629	0.105797
11.8236	0.108474
11.8844	0.10746
11.9451	0.105756
12.0058	0.104215
12.0666	0.108637
12.1273	0.101821
12.1881	0.106446
12.2488	0.104215
12.3096	0.103282
12.3703	0.104904
12.431	0.105756
12.4918	0.103404
12.5525	0.100523
12.6133	0.105594
12.674	0.101537
12.7348	0.09959028
12.7955	0.0979676
12.8562	0.0952903
12.917	0.09553365
12.9777	0.0958987
13.0385	0.0980893
13.0992	0.0911525
13.16	0.0924912
13.2207	0.093911
13.2814	0.0883128
13.3422	0.0889619
13.4029	0.0891242
13.4637	0.0849458
13.5244	0.0880289
13.5852	0.0819439
13.6459	0.0798345
13.7066	0.0768731
13.7674	0.0751288
13.8281	0.07411464
13.8889	0.0746014
13.9496	0.0777656
14.0104	0.0719646
14.0711	0.0668533
14.1318	0.0668533
14.1926	0.0688005
14.2533	0.0651495
14.3141	0.063324
14.3748	0.0607683
14.4356	0.06632591
14.4963	0.0613363
14.557	0.0559409
14.6178	0.0565089
14.6785	0.05764472
14.7393	0.0564277
14.8	0.0551296
14.8608	0.0574419
14.9215	0.0547645
14.9822	0.0620664
15.043	0.0819034
15.1037	0.157276
15.1645	0.220681
15.2252	0.0942761
15.286	0.0481928
15.3467	0.0448663
15.4074	0.0448663
15.4682	0.04194556
15.5289	0.04227009
15.5897	0.0377267
15.6504	0.0385786
15.7112	0.0397955
15.7719	0.0346436
15.8326	0.0346842
15.8934	0.0335483
15.9541	0.0346842
16.0149	0.0307898
16.0756	0.0313578
16.1364	0.032737
16.1971	0.0313983
16.2578	0.0277474
16.3186	0.0295323
16.3793	0.0283558
16.4401	0.0251917
16.5008	0.0252322
16.5616	0.0236907
16.6223	0.02766622
16.683	0.0221492
16.7438	0.023569
16.8045	0.0229605
16.8653	0.0219869
16.926	0.0193096
16.9868	0.0203643
17.0475	0.0209322
17.1082	0.0199992
17.169	0.0219464
17.2297	0.0174029
17.2905	0.019269
17.3512	0.0219058
17.412	0.0188228
17.4727	0.0166322
17.5335	0.01724068
17.5942	0.0171595
17.6549	0.01646992
17.7157	0.0177275
17.7764	0.01350858
17.8372	0.0142388
17.8979	0.0158614
17.9587	0.0148067
18.0194	0.0133057
18.0801	0.0133057
18.1409	0.0136303
18.2016	0.0122105
18.2624	0.0131029
18.3231	0.0123727
18.3839	0.0131029
18.4446	0.0123322
18.5053	0.0103038
18.5661	0.012819
18.6268	0.0107906
18.6876	0.009817046
18.7483	0.009817046
18.8091	0.0101416
18.8698	0.0112369
18.9305	0.0101416
18.9913	0.009898179
19.052	0.0104255
19.1128	0.009249118
19.1735	0.009614214
19.2343	0.0117642
19.295	0.0104255
19.3557	0.006896272
19.4165	0.009695347
19.4772	0.007099103
19.538	0.008275526
19.5987	0.009046286
19.6595	0.004624559
19.7202	0.008600057
19.7809	0.009370817
19.8417	0.007423634
19.9024	0.006450043
19.9632	0.008032129
20.0239	0.005841548
20.0847	0.006652874
20.1454	0.008924587
20.2061	0.00713967
20.2669	0.008316093
20.3276	0.007626465
20.3884	0.004989656
20.4491	0.005760415
20.5099	0.004665125
20.5706	0.005557584
20.6313	0.006571742
20.6921	0.005476451
20.7528	0.005233053
20.8136	0.004746258
20.8743	0.00669344
20.9351	0.004056631
20.9958	0.005841548
21.0565	0.002433978
21.1173	0.006328344
21.178	0.00604438
21.2388	0.004097197
21.2995	0.005800982
21.3603	0.004908523
21.421	0.004867957
21.4817	0.003326437
21.5425	0.004097197
21.6032	0.004259462
21.664	0.004097197
21.7247	0.003245304
21.7855	0.004867957
21.8462	0.004300028
21.9069	0.005314186
21.9677	0.005151921
22.0284	0.007301935
22.0892	0.006936838
22.1499	0.006896272
22.2107	0.008884021
22.2714	0.01087177
22.3321	0.009086852
22.3929	0.0120482
22.4536	0.0142388
22.5144	0.0185388
22.5751	0.02507
22.6359	0.0369559
22.6966	0.102187
22.7573	0.302584
22.8181	0.660379
22.8788	0.420226
22.9396	0.118332
23.0003	0.0458399
23.0611	0.0374021
23.1218	0.0390654
23.1826	0.0341163
23.2433	0.0255973
23.304	0.0135897
23.3648	0.0112774
23.4255	0.0118454
23.4863	0.0102633
23.547	0.0117642
23.6078	0.0131435
23.6685	0.0121293
23.7292	0.0142388
23.79	0.019553
23.8507	0.021419
23.9115	0.0205266
23.9722	0.0200398
24.033	0.0203237
24.0937	0.0223115
24.1544	0.0171595
24.2152	0.0184982
24.2759	0.0142388
24.3367	0.012819
24.3974	0.0118859
24.4582	0.0108312
24.5189	0.0101821
24.5796	0.008194394
24.6404	0.005435885
24.7011	0.007017971
24.7619	0.004867957
24.8226	0.004016064
24.8834	0.005435885
24.9441	0.005070788
25.0048	0.005638716
25.0656	0.005719849
25.1263	0.004705691
25.1871	0.006774573
25.2478	0.003448136
25.3086	0.005354752
25.3693	0.005922681
25.43	0.006774573
25.4908	0.004137763
25.5515	0.003326437
25.6123	0.003691534
25.673	0.003285871
25.7338	0.005030222
25.7945	0.003853799
25.8552	0.003853799
25.916	0.004462294
25.9767	0.004178329
26.0375	0.003650968
26.0982	0.004097197
26.159	0.003448136
26.2197	0.00450286
26.2804	0.004381161
26.3412	0.003529269
26.4019	0.004340595
26.4627	0.003488702
26.5234	0.003975498
26.5842	0.003650968
26.6449	0.003083039
26.7056	0.002393412
26.7664	0.004786824
26.8271	0.004746258
26.8879	0.004462294
26.9486	0.00340757
27.0094	0.004097197
27.0701	0.00263681
27.1308	0.004908523
27.1916	0.006003813
27.2523	0.004949089
27.3131	0.008397225
27.3738	0.006571742
27.4346	0.0127784
27.4953	0.015902
27.556	0.0322096
27.6168	0.0313172
27.6775	0.0316823
27.7383	0.0311955
27.799	0.0380918
27.8598	0.0303842
27.9205	0.017119
27.9812	0.009533082
28.042	0.003894365
28.1027	0.005800982
28.1635	0.005435885
28.2242	0.003813233
28.285	0.005070788
28.3457	0.004583993
28.4064	0.003650968
28.4672	0.004381161
28.5279	0.000365097
28.5887	0.003569835
28.6494	0.004056631
28.7102	0.002555677
28.7709	0.005070788
28.8316	0.004665125
28.8924	0.004178329
28.9531	0.003204738
29.0139	0.003326437
29.0746	0.003650968
29.1354	0.004543426
29.1961	0.00482739
29.2569	0.004259462
29.3176	0.005882114
29.3783	0.005070788
29.4391	0.005192487
29.4998	0.005760415
29.5606	0.006166078
29.6213	0.004705691
29.6821	0.005679283
29.7428	0.00713967
29.8035	0.006084946
29.8643	0.004137763
29.925	0.005233053
29.9858	0.004300028
30.0465	0.00482739
30.1073	0.003367003
30.168	0.003610401
30.2287	0.006287777
30.2895	0.003772666
30.3502	0.004340595
30.411	0.008032129
30.4717	0.0134274
30.5325	0.034887
30.5932	0.0715184
30.6539	0.0471786
30.7147	0.0200398
30.7754	0.006490609
30.8362	0.007545333
30.8969	0.00604438
30.9577	0.005070788
31.0184	0.003488702
31.0791	0.004867957
31.1399	0.004137763
31.2006	0.004746258
31.2614	0.004137763
31.3221	0.003934932
31.3829	0.006247211
31.4436	0.007950996
31.5043	0.005395319
31.5651	0.008762322
31.6258	0.0110746
31.6866	0.0115614
31.7473	0.0105067
31.8081	0.0102633
31.8688	0.0115208
31.9295	0.0129407
31.9903	0.0147256
32.051	0.0163888
32.1118	0.02020202
32.1725	0.0263275
32.2333	0.0317229
32.294	0.0433248
32.3547	0.0672184
32.4155	0.123403
32.4762	0.272687
32.537	0.462334
32.5977	0.478033
32.6585	0.512434
32.7192	0.63823
32.7799	0.7235
32.8407	0.512961
32.9014	0.257921
32.9622	0.09817046
33.0229	0.0561843
33.0837	0.0417833
33.1444	0.0282341
33.2051	0.02174354
33.2659	0.0175246
33.3266	0.0161048
33.3874	0.0140765
33.4481	0.0109935
33.5089	0.0123727
33.5696	0.0113991
33.6303	0.0133463
33.6911	0.0180926
33.7518	0.015618
33.8126	0.0139954
33.8733	0.0137925
33.9341	0.0144822
33.9948	0.0132652
34.0555	0.011602
34.1163	0.0105067
34.177	0.0133869
34.2378	0.0126567
34.2985	0.01241329
34.3593	0.0100199
34.42	0.01196706
34.4807	0.00977648
34.5415	0.009979311
34.6022	0.0102227
34.663	0.0105067
34.7237	0.0100604
34.7845	0.008032129
34.8452	0.007504767
34.906	0.007748164
34.9667	0.009127419
35.0274	0.0074642
35.0882	0.00669344
35.1489	0.007383068
35.2097	0.009492516
35.2704	0.009208551
35.3312	0.007950996
35.3919	0.007829297
35.4526	0.008681189
35.5134	0.007950996
35.5741	0.0100199
35.6349	0.005638716
35.6956	0.006409476
35.7564	0.005476451
35.8171	0.007504767
35.8778	0.007707598
35.9386	0.006450043
35.9993	0.008518924
36.0601	0.006328344
36.1208	0.009370817
36.1816	0.009857612
36.2423	0.01460387
36.303	0.024137
36.3638	0.0172001
36.4245	0.014685
36.4853	0.009289684
36.546	0.006003813
36.6068	0.00527362
36.6675	0.007342501
36.7282	0.006774573
36.789	0.004218896
36.8497	0.0037321
36.9105	0.002109448
36.9712	0.004949089
37.032	0.005517018
37.0927	0.003001907
37.1534	0.004705691
37.2142	0.005476451
37.2749	0.007748164
37.3357	0.007788731
37.3964	0.0074642
37.4572	0.006734007
37.5179	0.006936838
37.5786	0.009735913
37.6394	0.006247211
37.7001	0.008640623
37.7609	0.006815139
37.8216	0.007017971
37.8824	0.007180236
37.9431	0.008884021
38.0038	0.0131029
38.0646	0.01537463
38.1253	0.0196747
38.1861	0.0247454
38.2468	0.0304247
38.3076	0.0383757
38.3683	0.0702608
38.429	0.251552
38.4898	0.781834
38.5505	0.581559
38.6113	0.510486
38.672	0.190499
38.7328	0.0946818
38.7935	0.0564683
38.8542	0.0360229
38.915	0.0221492
38.9757	0.0179709
39.0365	0.013468
39.0972	0.00933025
39.158	0.008478358
39.2187	0.009249118
39.2794	0.008681189
39.3402	0.007707598
39.4009	0.008316093
39.4617	0.007099103
39.5224	0.007829297
39.5832	0.009411383
39.6439	0.006815139
39.7046	0.005638716
39.7654	0.006855706
39.8261	0.005760415
39.8869	0.007748164
39.9476	0.008194394
40.0084	0.0101416
40.0691	0.0124539
40.1298	0.01427934
40.1906	0.0217841
40.2513	0.0525739
40.3121	0.118089
40.3728	0.0932619
40.4336	0.0774411
40.4943	0.0309927
40.5551	0.0157803
40.6158	0.0111152
40.6765	0.005922681
40.7373	0.007058537
40.798	0.00559815
40.8588	0.006490609
40.9195	0.005111355
40.9803	0.005151921
41.041	0.002799075
41.1017	0.005354752
41.1625	0.00296134
41.2232	0.004705691
41.284	0.003488702
41.3447	0.005841548
41.4055	0.004178329
41.4662	0.003610401
41.5269	0.00450286
41.5877	0.006084946
41.6484	0.005030222
41.7092	0.005800982
41.7699	0.006734007
41.8307	0.007301935
41.8914	0.008721756
41.9521	0.00713967
42.0129	0.007585899
42.0736	0.009938745
42.1344	0.00669344
42.1951	0.006896272
42.2559	0.007017971
42.3166	0.00636891
42.3773	0.007301935
42.4381	0.00604438
42.4988	0.006896272
42.5596	0.005070788
42.6203	0.004949089
42.6811	0.004178329
42.7418	0.004097197
42.8025	0.004259462
42.8633	0.004340595
42.924	0.004340595
42.9848	0.004989656
43.0455	0.005192487
43.1063	0.005314186
43.167	0.004665125
43.2277	0.005395319
43.2885	0.00450286
43.3492	0.006166078
43.41	0.004665125
43.4707	0.002352846
43.5315	0.002190581
43.5922	0.003001907
43.6529	0.003853799
43.7137	0.003569835
43.7744	0.004421727
43.8352	0.003042473
43.8959	0.00340757
43.9567	0.005030222
44.0174	0.004300028
44.0781	0.004462294
44.1389	0.003853799
44.1996	0.002839641
44.2604	0.005841548
44.3211	0.005557584
44.3819	0.006450043
44.4426	0.006774573
44.5033	0.007342501
44.5641	0.007545333
44.6248	0.005233053
44.6856	0.005841548
44.7463	0.006328344
44.8071	0.006977405
44.8678	0.007788731
44.9285	0.005517018
44.9893	0.008113261
45.05	0.0101416
45.1108	0.007748164
45.1715	0.009735913
45.2323	0.010385
45.293	0.0139548
45.3537	0.0128595
45.4145	0.0131029
45.4752	0.0126161
45.536	0.0109123
45.5967	0.008843455
45.6575	0.009817046
45.7182	0.007626465
45.7789	0.009167985
45.8397	0.008884021
45.9004	0.008924587
45.9612	0.007220802
46.0219	0.0109935
46.0827	0.0129812
46.1434	0.014969
46.2041	0.020486
46.2649	0.0254351
46.3256	0.0353738
46.3864	0.0477871
46.4471	0.0637297
46.5079	0.142023
46.5686	0.593079
46.6294	0.930104
46.6901	0.636891
46.7508	0.637702
46.8116	0.285708
46.8723	0.156789
46.9331	0.0943978
46.9938	0.06072776
47.0546	0.0490447
47.1153	0.0446635
47.176	0.038822
47.2368	0.0457994
47.2975	0.0548051
47.3583	0.0688816
47.419	0.0780496
47.4798	0.0610929
47.5405	0.0492475
47.6012	0.0337512
47.662	0.0182954
47.7227	0.0138737
47.7835	0.0108312
47.8442	0.01087177
47.905	0.009614214
47.9657	0.008316093
48.0264	0.005719849
48.0872	0.006247211
48.1479	0.005719849
48.2087	0.004543426
48.2694	0.005963247
48.3302	0.004137763
48.3909	0.00450286
48.4516	0.004908523
48.5124	0.00669344
48.5731	0.006328344
48.6339	0.006084946
48.6946	0.007788731
48.7554	0.004786824
48.8161	0.007504767
48.8768	0.00340757
48.9376	0.005070788
48.9983	0.006166078
49.0591	0.003083039
49.1198	0.005476451
49.1806	0.004178329
49.2413	0.004259462
49.302	0.004989656
49.3628	0.005517018
49.4235	0.0074642
49.4843	0.004178329
49.545	0.004583993
49.6058	0.005476451
49.6665	0.004178329
49.7272	0.004867957
49.788	0.005314186
49.8487	0.00559815
49.9095	0.005679283
49.9702	0.006490609
50.031	0.005192487
50.0917	0.005233053
50.1524	0.004462294
50.2132	0.004300028
50.2739	0.003772666
50.3347	0.005314186
50.3954	0.00296134
50.4562	0.002717942
50.5169	0.003813233
50.5776	0.001825484
50.6384	0.002839641
50.6991	0.004786824
50.7599	0.002433978
50.8206	0.003975498
50.8814	0.004381161
50.9421	0.003001907
51.0028	0.005070788
51.0636	0.005841548
51.1243	0.002799075
51.1851	0.004949089
51.2458	0.004381161
51.3066	0.007869863
51.3673	0.0112774
51.428	0.0302219
51.4888	0.0267332
51.5495	0.0182954
51.6103	0.0178086
51.671	0.008721756
51.7318	0.006896272
51.7925	0.004665125
51.8532	0.007788731
51.914	0.004259462
51.9747	0.003083039
52.0355	0.002839641
52.0962	0.004624559
52.157	0.005354752
52.2177	0.0037321
52.2785	0.005233053
52.3392	0.007220802
52.3999	0.007423634
52.4607	0.0107095
52.5214	0.0205266
52.5822	0.0225143
52.6429	0.0299785
52.7037	0.02734169
52.7644	0.0222709
52.8251	0.0179303
52.8859	0.0120482
52.9466	0.0107906
53.0074	0.0104255
53.0681	0.0129812
53.1289	0.0111557
53.1896	0.011318
53.2503	0.0156586
53.3111	0.0107501
53.3718	0.008640623
53.4326	0.00823496
53.4933	0.006531175
53.5541	0.006125512
53.6148	0.004705691
53.6755	0.003285871
53.7363	0.004989656
53.797	0.005841548
53.8578	0.00340757
53.9185	0.004705691
53.9793	0.004624559
54.04	0.005151921
54.1007	0.001338688
54.1615	0.004583993
54.2222	0.00340757
54.283	0.003326437
54.3437	0.003975498
54.4045	0.004786824
54.4652	0.003204738
54.5259	0.003488702
54.5867	0.005719849
54.6474	0.004786824
54.7082	0.0074642
54.7689	0.00855949
54.8297	0.0139548
54.8904	0.03403513
54.9511	0.109488
55.0119	0.0968318
55.0726	0.0683137
55.1334	0.076143
55.1941	0.0382946
55.2549	0.0242992
55.3156	0.0179303
55.3763	0.0114397
55.4371	0.0102633
55.4978	0.009573648
55.5586	0.006936838
55.6193	0.008072695
55.6801	0.0100604
55.7408	0.009614214
55.8015	0.005030222
55.8623	0.009492516
55.923	0.005192487
55.9838	0.00450286
56.0445	0.002596244
56.1053	0.006855706
56.166	0.002880208
56.2267	0.004137763
56.2875	0.001663219
56.3482	0.004705691
56.409	0.004624559
56.4697	0.005476451
56.5305	0.004259462
56.5912	0.005070788
56.6519	0.003569835
56.7127	0.003285871
56.7734	0.004340595
56.8342	0.005435885
56.8949	0.005192487
56.9557	0.004300028
57.0164	0.003975498
57.0771	0.003245304
57.1379	0.003691534
57.1986	0.004543426
57.2594	0.004665125
57.3201	0.004097197
57.3809	0.005679283
57.4416	0.005557584
57.5023	0.004908523
57.5631	0.00669344
57.6238	0.00604438
57.6846	0.007504767
57.7453	0.008275526
57.8061	0.0106284
57.8668	0.016186
57.9275	0.0210133
57.9883	0.0279502
58.049	0.0435682
58.1098	0.120117
58.1705	0.204008
58.2313	0.168878
58.292	0.165389
58.3528	0.141455
58.4135	0.104702
58.4742	0.0718835
58.535	0.065758
58.5957	0.0726137
58.6565	0.0793477
58.7172	0.0656768
58.778	0.05204657
58.8387	0.0465296
58.8994	0.0255162
58.9602	0.0187011
59.0209	0.0117237
59.0817	0.008437792
59.1424	0.007261369
59.2032	0.00604438
59.2639	0.006896272
59.3246	0.003123606
59.3854	0.005314186
59.4461	0.005476451
59.5069	0.004665125
59.5676	0.002920774
59.6284	0.004421727
59.6891	0.004259462
59.7498	0.005030222
59.8106	0.003285871
59.8713	0.003448136
59.9321	0.002717942
59.9928	0.00186605
60.0536	0.002271713
60.1143	0.004056631
60.175	0.004421727
60.2358	0.006125512
60.2965	0.00900572
60.3573	0.008194394
60.418	0.0116831
60.4788	0.0132652
60.5395	0.01087177
60.6002	0.007707598
60.661	0.007950996
60.7217	0.004462294
60.7825	0.003894365
60.8432	0.004746258
60.904	0.004705691
60.9647	0.003083039
61.0254	0.003326437
61.0862	0.00340757
61.1469	0.004259462
61.2077	0.004665125
61.2684	0.005070788
61.3292	0.003650968
61.3899	0.00340757
61.4506	0.005395319
61.5114	0.002839641
61.5721	0.003123606
61.6329	0.002150014
61.6936	0.003042473
61.7544	0.004097197
61.8151	0.003813233
61.8758	0.004097197
61.9366	0.006084946
61.9973	0.008113261
62.0581	0.0159426
62.1188	0.0189039
62.1796	0.0173218
62.2403	0.0192284
62.301	0.017768
62.3618	0.0144416
62.4225	0.011318
62.4833	0.0154558
62.544	0.0146444
62.6048	0.0191473
62.6655	0.0193501
62.7262	0.014969
62.787	0.0139548
62.8477	0.009249118
62.9085	0.006450043
62.9692	0.004097197
63.03	0.004583993
63.0907	0.004300028
63.1514	0.002717942
63.2122	0.002109448
63.2729	0.003367003
63.3337	0.003083039
63.3944	0.001947183
63.4552	0.003813233
63.5159	0.00109529
63.5766	0.002677376
63.6374	0.005151921
63.6981	0.004381161
63.7589	0.004178329
63.8196	0.004543426
63.8804	0.002920774
63.9411	0.004381161
64.0019	0.0037321
64.0626	0.002880208
64.1233	0.001784917
64.1841	0.002717942
64.2448	0.001338688
64.3056	0.001298122
64.3663	0.002150014
64.4271	0.002839641
64.4878	0.001622652
64.5485	0
64.6093	0.002352846
64.67	0.002352846
64.7308	0.002758509
64.7915	0.002474545
64.8523	0.003650968
64.913	0.002799075
64.9737	0.003569835
65.0345	0.004624559
65.0952	0.002758509
65.156	0.002231147
65.2167	0.002271713
65.2775	0.004746258
65.3382	0.003813233
65.3989	0.004218896
65.4597	0.0112774
65.5204	0.0208511
65.5812	0.0117237
65.6419	0.0104255
65.7027	0.0105878
65.7634	0.007829297
65.8241	0.003367003
65.8849	0.004867957
65.9456	0.003569835
66.0064	0.002190581
66.0671	0.001419821
66.1279	0.000527362
66.1886	0.001135857
66.2493	0.002190581
66.3101	0.002677376
66.3708	0.003001907
66.4316	0.00077076
66.4923	0.002515111
66.5531	0.002758509
66.6138	0.002433978
66.6745	0.003650968
66.7353	0.002393412
66.796	0.002880208
66.8568	0.001176423
66.9175	0.001987749
66.9783	0.002190581
67.039	0.004381161
67.0997	0.003001907
67.1605	0.002109448
67.2212	0.004705691
67.282	0.003691534
67.3427	0.001298122
67.4035	0.004583993
67.4642	0.005030222
67.5249	0.003245304
67.5857	0.007058537
67.6464	0.006531175
67.7072	0.004786824
67.7679	0.00450286
67.8287	0.005719849
67.8894	0.008884021
67.9501	0.007950996
68.0109	0.0131029
68.0716	0.0205266
68.1324	0.0339134
68.1931	0.0298568
68.2539	0.0248266
68.3146	0.0259219
68.3753	0.0273011
68.4361	0.0257596
68.4968	0.0326964
68.5576	0.0473814
68.6183	0.0768731
68.6791	0.0843373
68.7398	0.0877855
68.8005	0.0795911
68.8613	0.0588211
68.922	0.05172204
68.9828	0.0341568
69.0435	0.0202426
69.1043	0.0132652
69.165	0.009573648
69.2257	0.006531175
69.2865	0.005111355
69.3472	0.006287777
69.408	0.004097197
69.4687	0.005070788
69.5295	0.002190581
69.5902	0.003367003
69.6509	0.003813233
69.7117	0.002555677
69.7724	0.004340595
69.8332	0.002352846
69.8939	0.002109448
69.9547	0.003853799
70.0154	0.00154152
70.0762	0.003204738
70.1369	0.002677376
70.1976	0.003975498
70.2584	0.003083039
70.3191	0.001703785
70.3799	0.001622652
70.4406	0.001784917
70.5014	0.001703785
70.5621	0.001947183
70.6228	0.003448136
70.6836	0.001825484
70.7443	0.002555677
70.8051	0.002474545
70.8658	0.003164172
70.9266	0.002352846
70.9873	0.003367003
71.048	0.000730194
71.1088	0.002474545
71.1695	0.002920774
71.2303	0.003569835
71.291	0.002109448
71.3518	0.002190581
71.4125	0.002839641
71.4732	0.0037321
71.534	0.002312279
71.5947	0.000730194
71.6555	0.001500953
71.7162	0.001987749
71.777	0.00077076
71.8377	0.004786824
71.8984	0.002717942
71.9592	0.001338688
72.0199	0.003042473
72.0807	0.000405663
72.1414	0.00186605
72.2022	0.00263681
72.2629	0.000851892
72.3236	0.002271713
72.3844	0.001825484
72.4451	0.002190581
72.5059	0.004949089
72.5666	0.005070788
72.6274	0.003488702
72.6881	0.007991562
72.7488	0.0202426
72.8096	0.03152
72.8703	0.022352
72.9311	0.0169161
72.9918	0.0224332
73.0526	0.0231228
73.1133	0.01427934
73.174	0.009370817
73.2348	0.008194394
73.2955	0.008316093
73.3563	0.008762322
73.417	0.0115614
73.4778	0.0151312
73.5385	0.0139142
73.5992	0.007545333
73.66	0.009208551
73.7207	0.008356659
73.7815	0.006166078
73.8422	0.003083039
73.903	0.003772666
73.9637	0.001298122
74.0244	0.003569835
74.0852	0.00450286
74.1459	0.003488702
74.2067	0.003894365
74.2674	0.003204738
74.3282	0.003042473
74.3889	0.004421727
74.4496	0.003204738
74.5104	0.001176423
74.5711	0.001135857
74.6319	0.002758509
74.6926	0.000851892
74.7534	0.003813233
74.8141	0.002677376
74.8748	0.003853799
74.9356	0.005638716
74.9963	0.007423634
75.0571	0.008518924
75.1178	0.005882114
75.1786	0.006734007
75.2393	0.007301935
75.3	0.004867957
75.3608	0.006166078
75.4215	0.005192487
75.4823	0.004989656
75.543	0.005151921
75.6038	0.007504767
75.6645	0.004624559
75.7253	0.004908523
75.786	0.002515111
75.8467	0.002028315
75.9075	0.002231147
75.9682	0.00263681
76.029	0.003691534
76.0897	0.001582086
76.1505	0.002068882
76.2112	0.001784917
76.2719	0.003772666
76.3327	0.002150014
76.3934	0.003245304
76.4542	0.002717942
76.5149	0.001987749
76.5757	0.002880208
76.6364	0.002677376
76.6971	0.002474545
76.7579	0.002190581
76.8186	0.004097197
76.8794	0.003691534
76.9401	0.002433978
77.0009	0.005963247
77.0616	0.00527362
77.1223	0.004381161
77.1831	0.007099103
77.2438	0.00482739
77.3046	0.008072695
77.3653	0.011602
77.4261	0.0229605
77.4868	0.0316417
77.5475	0.0418644
77.6083	0.0426352
77.669	0.0416616
77.7298	0.0375644
77.7905	0.0407691
77.8513	0.0385786
77.912	0.0261653
77.9727	0.0215001
78.0335	0.0194718
78.0942	0.0123322
78.155	0.009695347
78.2157	0.0112774
78.2765	0.009573648
78.3372	0.007991562
78.3979	0.007788731
78.4587	0.0101416
78.5194	0.00900572
78.5802	0.0133057
78.6409	0.01241329
78.7017	0.0159831
78.7624	0.0193501
78.8231	0.02174354
78.8839	0.0176463
78.9446	0.0150907
79.0054	0.0130218
79.0661	0.0123322
79.1269	0.009411383
79.1876	0.00559815
79.2483	0.005922681
79.3091	0.005557584
79.3698	0.003610401
79.4306	0.002190581
79.4913	0.003204738
79.5521	0.001947183
79.6128	0.002799075
79.6735	0.005030222
79.7343	0.005395319
79.795	0.004665125
79.8558	0.004786824
79.9165	0.004705691
79.9773	0.004340595
79.9975	0.004300028