File: XRD_ref.txt
10	0.10812	0.05887	0.08556
10.06	0.00413	0.00263	0.00612
10.12	0.0041	0.00261	0.00644
10.18	0.00407	0.00259	0.00697
10.24	0.00416	0.00257	0.00789
10.3	0.00414	0.00255	0.00973
10.36	0.00411	0.00253	0.0142
10.42	0.00408	0.00252	0.03014
10.48	0.00406	0.0025	0.39674
10.54	0.00403	0.00248	0.58684
10.6	0.00401	0.00246	0.03197
10.66	0.00399	0.00245	0.01408
10.72	0.00396	0.00243	0.00936
10.78	0.00394	0.00241	0.00745
10.84	0.00392	0.0024	0.00648
10.9	0.0039	0.00238	0.00592
10.96	0.00388	0.00237	0.00557
11.02	0.00386	0.00235	0.00533
11.08	0.00384	0.00234	0.00515
11.14	0.00382	0.00232	0.00502
11.2	0.0038	0.00231	0.00492
11.26	0.00378	0.00229	0.00484
11.32	0.00376	0.00228	0.00478
11.38	0.00374	0.00227	0.00473
11.44	0.00373	0.00225	0.00483
11.5	0.00371	0.00224	0.00462
11.56	0.0037	0.00223	0.00461
11.62	0.00368	0.00222	0.00461
11.68	0.00367	0.0022	0.00461
11.74	0.00365	0.00219	0.00461
11.8	0.00364	0.00218	0.00461
11.86	0.00363	0.00217	0.00461
11.92	0.00362	0.00216	0.00462
11.98	0.0036	0.00214	0.00463
12.04	0.00359	0.00213	0.00465
12.1	0.00358	0.00212	0.00466
12.16	0.00357	0.00211	0.00468
12.22	0.00357	0.0021	0.00471
12.28	0.00368	0.00209	0.00474
12.34	0.00368	0.00208	0.00477
12.4	0.00368	0.00207	0.00481
12.46	0.00368	0.00206	0.00486
12.52	0.00368	0.00205	0.00491
12.58	0.00368	0.00204	0.00498
12.64	0.00368	0.00203	0.00505
12.7	0.00369	0.00202	0.00514
12.76	0.0037	0.00201	0.00525
12.82	0.0037	0.002	0.00537
12.88	0.00371	0.00207	0.00551
12.94	0.00373	0.00207	0.00568
13	0.00374	0.00206	0.00588
13.06	0.00376	0.00206	0.00612
13.12	0.00378	0.00205	0.00641
13.18	0.0038	0.00205	0.00677
13.24	0.00383	0.00205	0.00721
13.3	0.00386	0.00204	0.00777
13.36	0.0039	0.00204	0.00849
13.42	0.00394	0.00204	0.00943
13.48	0.00398	0.00204	0.01069
13.54	0.00404	0.00204	0.01245
13.6	0.0041	0.00204	0.01498
13.66	0.00417	0.00212	0.01883
13.72	0.00425	0.00213	0.0251
13.78	0.00434	0.00214	0.03639
13.84	0.00445	0.00216	0.05994
13.9	0.00457	0.00218	0.12336
13.96	0.00471	0.0022	0.41998
14.02	0.00488	0.00222	10.55876
14.08	0.00508	0.00225	1.60669
14.14	0.00532	0.00229	0.17808
14.2	0.00561	0.00233	0.07322
14.26	0.00596	0.00239	0.04072
14.32	0.00639	0.00246	0.02653
14.38	0.00694	0.00254	0.01909
14.44	0.00763	0.00265	0.01471
14.5	0.00852	0.00278	0.01191
14.56	0.00972	0.00296	0.01002
14.62	0.01136	0.00319	0.00869
14.68	0.0137	0.00351	0.00771
14.74	0.01721	0.00396	0.00697
14.8	0.02282	0.00463	0.00639
14.86	0.03263	0.00568	0.00594
14.92	0.05224	0.00747	0.00558
14.98	0.10109	0.01092	0.00528
15.04	0.29036	0.01893	0.00504
15.1	5.98633	0.04556	0.00484
15.16	4.5028	0.40949	0.00466
15.22	0.25317	1.2619	0.00452
15.28	0.09005	0.08292	0.00439
15.34	0.04684	0.02511	0.00428
15.4	0.02924	0.01277	0.00418
15.46	0.02037	0.00813	0.0041
15.52	0.01529	0.00589	0.00402
15.58	0.01211	0.00464	0.00396
15.64	0.00998	0.00388	0.0039
15.7	0.0085	0.00337	0.00385
15.76	0.00742	0.00303	0.0038
15.82	0.00661	0.00277	0.00376
15.88	0.00599	0.00259	0.00384
15.94	0.00551	0.00244	0.00366
16	0.00522	0.00233	0.00364
16.06	0.0049	0.00224	0.00362
16.12	0.00475	0.00217	0.0036
16.18	0.00454	0.00211	0.00359
16.24	0.00436	0.00206	0.00358
16.3	0.0042	0.00201	0.00356
16.36	0.00407	0.00198	0.00355
16.42	0.00396	0.00195	0.00354
16.48	0.00386	0.00192	0.00353
16.54	0.00378	0.00183	0.00352
16.6	0.00371	0.00181	0.00337
16.66	0.00364	0.0018	0.00337
16.72	0.00358	0.00185	0.00337
16.78	0.00353	0.00185	0.00337
16.84	0.00349	0.00184	0.00337
16.9	0.00345	0.00183	0.00337
16.96	0.00341	0.00175	0.00338
17.02	0.00338	0.00181	0.00338
17.08	0.00335	0.00182	0.00338
17.14	0.00332	0.00182	0.00339
17.2	0.00318	0.00182	0.00339
17.26	0.00316	0.00182	0.00341
17.32	0.00315	0.00182	0.00342
17.38	0.00314	0.00182	0.00346
17.44	0.00313	0.00182	0.00355
17.5	0.00312	0.00182	0.00408
17.56	0.00312	0.00189	0.01198
17.62	0.00311	0.00189	0.00497
17.68	0.0031	0.0019	0.00359
17.74	0.0031	0.0019	0.00348
17.8	0.0031	0.0019	0.00358
17.86	0.00309	0.00191	0.00357
17.92	0.00297	0.00191	0.00357
17.98	0.00297	0.00192	0.00358
18.04	0.00298	0.00192	0.00358
18.1	0.00298	0.00192	0.00359
18.16	0.00299	0.00193	0.0036
18.22	0.00299	0.00193	0.00361
18.28	0.003	0.00194	0.00363
18.34	0.003	0.00195	0.00364
18.4	0.00301	0.00195	0.00365
18.46	0.00302	0.00196	0.00367
18.52	0.00314	0.00196	0.00368
18.58	0.00325	0.00197	0.0037
18.64	0.00327	0.00198	0.00372
18.7	0.00328	0.00199	0.00373
18.76	0.00329	0.00199	0.00375
18.82	0.00331	0.002	0.0039
18.88	0.00332	0.00201	0.00392
18.94	0.00345	0.00202	0.00408
19	0.00346	0.00203	0.00411
19.06	0.00348	0.00204	0.00415
19.12	0.0035	0.00211	0.00419
19.18	0.00352	0.00213	0.00423
19.24	0.00355	0.00214	0.00427
19.3	0.00357	0.00222	0.00432
19.36	0.00359	0.00224	0.00438
19.42	0.00362	0.00225	0.00443
19.48	0.00364	0.00227	0.0045
19.54	0.00367	0.00229	0.00456
19.6	0.0037	0.00231	0.00464
19.66	0.00373	0.00233	0.00472
19.72	0.00376	0.00242	0.00481
19.78	0.00379	0.00244	0.00491
19.84	0.00383	0.00247	0.00502
19.9	0.00387	0.00249	0.00515
19.96	0.0039	0.00252	0.00529
20.02	0.00405	0.00261	0.00546
20.08	0.0041	0.00265	0.00577
20.14	0.00415	0.00268	0.00611
20.2	0.0042	0.00272	0.00638
20.26	0.00437	0.00276	0.0067
20.32	0.00443	0.0028	0.00719
20.38	0.0045	0.00284	0.00766
20.44	0.00457	0.00289	0.00825
20.5	0.00464	0.00294	0.009
20.56	0.00473	0.003	0.01011
20.62	0.00481	0.00305	0.01147
20.68	0.00491	0.00312	0.0134
20.74	0.00511	0.00318	0.0163
20.8	0.00521	0.00325	0.02098
20.86	0.00533	0.00333	0.02935
20.92	0.00546	0.00342	0.04706
20.98	0.0056	0.00351	0.09454
21.04	0.00575	0.00361	0.32801
21.1	0.00591	0.00371	5.10367
21.16	0.00609	0.00383	2.08915
21.22	0.00628	0.00396	0.15848
21.28	0.0065	0.0041	0.06286
21.34	0.00674	0.00426	0.03624
21.4	0.007	0.00444	0.02517
21.46	0.0073	0.00464	0.01959
21.52	0.00763	0.00486	0.01659
21.58	0.00801	0.00511	0.01474
21.64	0.00844	0.00539	0.01362
21.7	0.00892	0.00571	0.01298
21.76	0.00958	0.00614	0.01266
21.82	0.01024	0.00657	0.01258
21.88	0.011	0.00707	0.01269
21.94	0.01191	0.00767	0.01304
22	0.013	0.00838	0.01354
22.06	0.01432	0.00923	0.01444
22.12	0.01596	0.01029	0.01532
22.18	0.01802	0.0116	0.01644
22.24	0.02069	0.01327	0.01786
22.3	0.02422	0.01544	0.01969
22.36	0.0291	0.01835	0.02206
22.42	0.03617	0.02238	0.02519
22.48	0.04713	0.02824	0.02942
22.54	0.06601	0.03727	0.0356
22.6	0.10462	0.05232	0.04434
22.66	0.21433	0.08053	0.05801
22.72	1.1857	0.14437	0.08136
22.78	2.93251	0.34961	0.12698
22.84	1.17212	2.67373	0.23868
22.9	0.67402	4.97341	0.67486
22.96	8.05256	1.60651	10.97916
23.02	5.75716	0.27946	7.21328
23.08	1.14083	0.15492	1.98998
23.14	6.94102	0.1534	1.75701
23.2	3.49417	0.32846	0.55207
23.26	0.30943	5.10042	0.23267
23.32	0.13065	2.98527	0.39121
23.38	0.07781	0.26863	4.44472
23.44	0.05363	0.09331	2.28864
23.5	0.0402	0.05117	0.61307
23.56	0.03189	0.03381	0.3514
23.62	0.02637	0.02476	0.08776
23.68	0.02255	0.01937	0.05429
23.74	0.01984	0.01588	0.04427
23.8	0.01793	0.01351	0.0408
23.86	0.01667	0.01188	0.04135
23.92	0.01603	0.01084	0.04632
23.98	0.01619	0.01048	0.05914
24.04	0.01785	0.01195	0.09336
24.1	0.02394	0.03906	0.23056
24.16	0.05885	0.05058	3.35905
24.22	0.50535	0.02309	2.04128
24.28	0.27475	0.00918	0.29103
24.34	0.12603	0.00776	0.12432
24.4	0.1337	0.008	0.11561
24.46	0.05573	0.01472	0.17729
24.52	0.0177	0.04598	0.70206
24.58	0.0128	0.02615	2.18402
24.64	0.01089	0.00711	3.33104
24.7	0.0099	0.00578	2.24031
24.76	0.0093	0.00532	0.7469
24.82	0.00891	0.00507	0.16804
24.88	0.00864	0.00492	0.09014
24.94	0.00846	0.00482	0.06261
25	0.00834	0.00474	0.05088
25.06	0.00815	0.00469	0.04666
25.12	0.00811	0.00466	0.04756
25.18	0.0081	0.00464	0.05442
25.24	0.00811	0.00463	0.07193
25.3	0.00814	0.00463	0.11734
25.36	0.0082	0.00465	0.28296
25.42	0.00827	0.00467	3.03986
25.48	0.00836	0.0047	2.34099
25.54	0.00836	0.00474	0.81522
25.6	0.00849	0.00478	0.16417
25.66	0.00859	0.00477	0.08301
25.72	0.00874	0.00478	0.0557
25.78	0.00883	0.00486	0.04425
25.84	0.00902	0.00496	0.04027
25.9	0.00925	0.00506	0.04291
25.96	0.00952	0.00522	0.06182
26.02	0.00971	0.00529	0.25851
26.08	0.01005	0.00544	0.57958
26.14	0.01042	0.00561	0.36188
26.2	0.01083	0.00579	0.05872
26.26	0.01129	0.006	0.03837
26.32	0.0117	0.00623	0.03315
26.38	0.01228	0.0065	0.03197
26.44	0.01294	0.0068	0.0329
26.5	0.01369	0.00715	0.03532
26.56	0.01455	0.00754	0.03922
26.62	0.01555	0.00794	0.045
26.68	0.01671	0.00843	0.0536
26.74	0.01808	0.00908	0.06626
26.8	0.01972	0.00986	0.08644
26.86	0.0217	0.01082	0.12085
26.92	0.02414	0.01202	0.18665
26.98	0.02719	0.01347	0.33946
27.04	0.03097	0.01547	0.84881
27.1	0.03608	0.01815	7.28322
27.16	0.04297	0.02198	8.01557
27.22	0.05266	0.02758	5.03981
27.28	0.06697	0.03648	0.64497
27.34	0.08963	0.05216	0.27773
27.4	0.12931	0.08445	0.16117
27.46	0.21117	0.17199	0.10968
27.52	0.4429	0.63121	0.08335
27.58	2.45875	6.1079	0.06937
27.64	4.66367	3.57856	0.06345
27.7	4.76837	0.37579	0.06509
27.76	15.24014	0.19093	0.07881
27.82	9.0385	0.26988	0.12653
27.88	0.89761	2.26784	0.38113
27.94	0.31981	1.57833	4.10243
28	0.17358	0.93634	2.18561
28.06	0.11229	0.14905	0.26045
28.12	0.08035	0.07107	0.09711
28.18	0.06148	0.04444	0.06709
28.24	0.0494	0.03184	0.18459
28.3	0.0412	0.02477	0.10275
28.36	0.03549	0.02039	0.05903
28.42	0.03127	0.01748	0.0321
28.48	0.02811	0.01545	0.02764
28.54	0.02571	0.014	0.02568
28.6	0.02387	0.01293	0.02486
28.66	0.02245	0.01213	0.02468
28.72	0.02134	0.01153	0.02487
28.78	0.02048	0.01109	0.02592
28.84	0.0199	0.01076	0.02776
28.9	0.01939	0.01052	0.03118
28.96	0.01902	0.01035	0.03796
29.02	0.01877	0.01024	0.05403
29.08	0.01861	0.01019	0.10964
29.14	0.01853	0.01018	0.91008
29.2	0.01853	0.01021	0.6513
29.26	0.01867	0.01027	0.50406
29.32	0.0188	0.01037	0.08289
29.38	0.01899	0.01049	0.04789
29.44	0.01923	0.01065	0.03712
29.5	0.01952	0.01083	0.03265
29.56	0.01987	0.01104	0.0306
29.62	0.02026	0.01127	0.02972
29.68	0.02071	0.01154	0.02959
29.74	0.02121	0.01183	0.02978
29.8	0.02176	0.01215	0.03027
29.86	0.02238	0.0125	0.03108
29.92	0.02305	0.01289	0.03201
29.98	0.02379	0.01331	0.03314
30.04	0.02461	0.01377	0.03447
30.1	0.02551	0.01427	0.03625
30.16	0.02653	0.01483	0.03823
30.22	0.02769	0.01545	0.04023
30.28	0.02909	0.01616	0.04194
30.34	0.03098	0.01698	0.04437
30.4	0.03444	0.01798	0.04717
30.46	0.05313	0.01936	0.05038
30.52	0.10075	0.02172	0.05408
30.58	0.09484	0.02846	0.05838
30.64	0.04235	0.12997	0.06342
30.7	0.04075	0.06718	0.06941
30.76	0.04194	0.0543	0.07662
30.82	0.04387	0.0285	0.08544
30.88	0.04631	0.02719	0.09644
30.94	0.04893	0.0278	0.11071
31	0.05199	0.02899	0.12963
31.06	0.05542	0.03055	0.15578
31.12	0.05927	0.03246	0.19381
31.18	0.0636	0.03466	0.25308
31.24	0.06848	0.03721	0.35484
31.3	0.07401	0.04005	0.55593
31.36	0.0803	0.04333	1.06105
31.42	0.0875	0.04703	3.13194
31.48	0.0958	0.05127	39.46973
31.54	0.10543	0.05617	13.25169
31.6	0.11678	0.06191	6.78386
31.66	0.13008	0.0686	1.32202
31.72	0.14594	0.07653	0.69409
31.78	0.16508	0.08607	0.53793
31.84	0.18855	0.09762	0.96097
31.9	0.21755	0.11186	1.57596
31.96	0.25438	0.12967	1.60978
32.02	0.30194	0.15244	0.44732
32.08	0.36533	0.18246	0.39744
32.14	0.45252	0.22334	0.42997
32.2	0.57785	0.28129	0.50538
32.26	0.76905	0.36873	0.6335
32.32	1.08668	0.51221	0.85071
32.38	1.68894	0.78104	1.25088
32.44	3.13735	1.41473	2.12235
32.5	9.31271	3.84948	4.76717
32.56	83.39292	43.60421	29.5385
32.62	39.07897	14.38592	48.59875
32.68	100	10.42733	55.48498
32.74	39.28247	4.50655	12.15631
32.8	36.3227	12.3715	86.16919
32.86	44.80048	100	27.36666
32.92	48.77932	42.10015	19.44151
32.98	5.60604	10.64197	3.46644
33.04	2.25325	2.64401	1.77526
33.1	1.29782	1.29074	1.36543
33.16	0.86518	0.77985	2.70362
33.22	0.62538	0.52723	6.59465
33.28	0.47651	0.38236	5.68065
33.34	0.37707	0.29112	1.00045
33.4	0.30742	0.22984	0.52375
33.46	0.25716	0.18675	0.40242
33.52	0.22106	0.15566	0.35656
33.58	0.19797	0.13346	0.3468
33.64	0.19734	0.11985	0.36621
33.7	0.38552	0.12698	0.42178
33.76	0.65027	0.46831	0.53795
33.82	0.644	0.18493	0.78638
33.88	0.15759	0.15049	1.44016
33.94	0.10664	0.07091	5.66094
34	0.08874	0.05762	12.63153
34.06	0.07776	0.05018	54.85936
34.12	0.06966	0.04478	23.49083
34.18	0.0632	0.04048	5.88731
34.24	0.05781	0.03694	1.54629
34.3	0.05323	0.03389	0.77961
34.36	0.04926	0.03125	0.48585
34.42	0.0458	0.02894	0.33977
34.48	0.04274	0.02692	0.25585
34.54	0.04004	0.02512	0.20348
34.6	0.03764	0.02352	0.16902
34.66	0.0355	0.0221	0.146
34.72	0.03358	0.02082	0.13126
34.78	0.03186	0.01967	0.12376
34.84	0.03033	0.01864	0.12465
34.9	0.02895	0.01772	0.13953
34.96	0.02772	0.01688	0.18924
35.02	0.02662	0.01613	0.385
35.08	0.02566	0.01545	3.1347
35.14	0.02481	0.01484	1.65071
35.2	0.02407	0.0143	2.45833
35.26	0.02351	0.01382	0.60794
35.32	0.023	0.0134	0.23645
35.38	0.02261	0.01304	0.21227
35.44	0.02235	0.01274	0.13536
35.5	0.02224	0.0125	0.45782
35.56	0.02229	0.01229	0.46897
35.62	0.02242	0.0122	0.60062
35.68	0.02294	0.01217	0.10678
35.74	0.02381	0.01228	0.06218
35.8	0.02516	0.01253	0.04985
35.86	0.02722	0.01297	0.04426
35.92	0.03039	0.01371	0.0413
35.98	0.03543	0.01489	0.03979
36.04	0.04393	0.01683	0.03931
36.1	0.05971	0.02018	0.03982
36.16	0.09397	0.02655	0.04126
36.22	0.19289	0.04078	0.04397
36.28	0.83018	0.08396	0.04845
36.34	3.79687	0.42421	0.05594
36.4	1.83896	1.11747	0.06953
36.46	0.58623	0.83152	0.10061
36.52	0.14534	0.17408	0.28124
36.58	0.07613	0.05286	0.59006
36.64	0.05075	0.03004	0.56538
36.7	0.03854	0.02132	0.4756
36.76	0.03177	0.01705	1.63441
36.82	0.02769	0.01466	9.65341
36.88	0.02511	0.01322	3.56126
36.94	0.02347	0.01232	1.67626
37	0.02245	0.01177	0.34947
37.06	0.02188	0.01144	0.17116
37.12	0.02166	0.01129	0.10787
37.18	0.02172	0.01127	0.07802
37.24	0.02205	0.01138	0.06162
37.3	0.02263	0.01158	0.05192
37.36	0.02346	0.01189	0.04603
37.42	0.02458	0.01232	0.04257
37.48	0.02602	0.01286	0.04079
37.54	0.02784	0.01353	0.04064
37.6	0.03013	0.01439	0.04197
37.66	0.033	0.01541	0.04505
37.72	0.03664	0.01666	0.05054
37.78	0.04131	0.01821	0.0598
37.84	0.04741	0.02013	0.07577
37.9	0.05554	0.02256	0.10559
37.96	0.06675	0.02568	0.17028
38.02	0.08282	0.02976	0.35662
38.08	0.10718	0.03524	1.57574
38.14	0.14715	0.04286	6.4875
38.2	0.22125	0.05392	2.86095
38.26	0.39072	0.07091	1.36906
38.32	0.99947	0.09916	0.9826
38.38	8.75835	0.15196	0.3434
38.44	3.09411	0.27103	0.25321
38.5	8.73892	0.65281	0.0964
38.56	4.82387	4.54313	0.07037
38.62	11.18765	4.9884	0.06
38.68	2.56606	5.78658	0.05605
38.74	3.33354	1.18499	0.05623
38.8	0.53226	1.34091	0.06019
38.86	0.25335	2.27962	0.06883
38.92	0.1597	1.63333	0.08484
38.98	0.11411	0.49908	0.11497
39.04	0.08796	0.1561	0.17837
39.1	0.07159	0.09132	0.34689
39.16	0.06073	0.06433	1.13794
39.22	0.05335	0.04996	9.71725
39.28	0.04833	0.04137	2.30297
39.34	0.04503	0.03594	3.17362
39.4	0.04309	0.03247	0.45133
39.46	0.04228	0.03037	0.20419
39.52	0.04257	0.02929	0.13013
39.58	0.04397	0.0291	0.10101
39.64	0.04662	0.02972	0.09441
39.7	0.0508	0.03122	0.15503
39.76	0.05699	0.03372	0.25555
39.82	0.06603	0.03749	0.18961
39.88	0.07935	0.04301	0.12907
39.94	0.09958	0.05108	0.11352
40	0.13188	0.06311	0.13704
40.06	0.1876	0.08182	0.1849
40.12	0.29587	0.11285	0.27937
40.18	0.55227	0.16958	0.49575
40.24	1.44296	0.29084	1.18107
40.3	11.89482	0.63271	7.47013
40.36	7.17533	2.68251	11.06254
40.42	10.91714	13.32031	8.87347
40.48	1.80219	4.04426	2.70397
40.54	0.55135	3.69092	0.65752
40.6	0.28221	0.60072	0.32013
40.66	0.17473	0.26452	0.19385
40.72	0.12021	0.15244	0.13191
40.78	0.08852	0.10046	0.09666
40.84	0.06838	0.07182	0.07463
40.9	0.05475	0.05427	0.05999
40.96	0.04508	0.0427	0.04995
41.02	0.03795	0.03465	0.04343
41.08	0.03255	0.02882	0.04334
41.14	0.02835	0.02446	0.08589
41.2	0.02508	0.0211	0.04036
41.26	0.0224	0.01847	0.04442
41.32	0.0202	0.01636	0.02515
41.38	0.01838	0.01465	0.02172
41.44	0.01685	0.01326	0.0197
41.5	0.01556	0.01209	0.01822
41.56	0.01446	0.0111	0.01706
41.62	0.01358	0.01026	0.01612
41.68	0.01277	0.00954	0.01537
41.74	0.01206	0.00892	0.01478
41.8	0.01144	0.00838	0.01442
41.86	0.0108	0.00791	0.01417
41.92	0.01032	0.00744	0.01401
41.98	0.0099	0.00708	0.01399
42.04	0.0096	0.00676	0.01405
42.1	0.00928	0.00648	0.01436
42.16	0.00899	0.00623	0.01515
42.22	0.00873	0.00601	0.01641
42.28	0.0085	0.00582	0.01855
42.34	0.0083	0.00564	0.02241
42.4	0.00813	0.00549	0.03
42.46	0.00788	0.00529	0.04946
42.52	0.00775	0.00517	0.12765
42.58	0.00764	0.00507	1.03807
42.64	0.00746	0.00493	0.29655
42.7	0.00729	0.00486	0.62533
42.76	0.00737	0.00474	0.15492
42.82	0.00733	0.0047	0.34365
42.88	0.00733	0.00466	0.10869
42.94	0.00732	0.00462	0.21105
43	0.0073	0.00461	0.0589
43.06	0.00724	0.00459	0.07201
43.12	0.00728	0.00462	0.02529
43.18	0.00732	0.00462	0.01719
43.24	0.00739	0.00463	0.01473
43.3	0.00746	0.00464	0.01352
43.36	0.00755	0.00467	0.01285
43.42	0.00765	0.0047	0.01241
43.48	0.00777	0.00474	0.01223
43.54	0.0079	0.00478	0.01221
43.6	0.00805	0.00484	0.0123
43.66	0.00822	0.0049	0.01242
43.72	0.0084	0.00493	0.01274
43.78	0.00861	0.005	0.01319
43.84	0.00884	0.0051	0.01381
43.9	0.0091	0.00515	0.01466
43.96	0.0093	0.00527	0.01591
44.02	0.00962	0.0054	0.01785
44.08	0.01004	0.00557	0.02128
44.14	0.01044	0.00573	0.02881
44.2	0.01089	0.0059	0.05369
44.26	0.0114	0.00608	0.31546
44.32	0.01197	0.00629	0.19829
44.38	0.01263	0.00652	0.22859
44.44	0.01339	0.00676	0.0886
44.5	0.01428	0.00704	0.03727
44.56	0.01518	0.00735	0.03069
44.62	0.01637	0.00769	0.03038
44.68	0.01796	0.00808	0.03284
44.74	0.01999	0.00848	0.03808
44.8	0.02266	0.00899	0.04771
44.86	0.02637	0.00958	0.06676
44.92	0.03188	0.01029	0.11304
44.98	0.04088	0.01116	0.28714
45.04	0.05793	0.01228	2.20781
45.1	0.09986	0.0138	0.82226
45.16	0.30718	0.01613	1.35549
45.22	1.40349	0.02063	0.34954
45.28	0.77891	0.03814	0.11447
45.34	1.01868	0.11774	0.07161
45.4	1.14798	0.0557	0.05632
45.46	0.63979	0.11124	0.04994
45.52	0.55834	0.36424	0.04757
45.58	0.25481	0.36676	0.04743
45.64	0.0914	0.25462	0.04883
45.7	0.06602	0.17744	0.05155
45.76	0.05829	0.05294	0.05549
45.82	0.05688	0.03889	0.06105
45.88	0.05903	0.03608	0.06941
45.94	0.06401	0.03695	0.08701
46	0.072	0.03991	0.20824
46.06	0.08391	0.04463	0.13437
46.12	0.10174	0.05129	0.17876
46.18	0.12968	0.06046	0.14285
46.24	0.1775	0.07322	0.15287
46.3	0.27245	0.09147	0.1837
46.36	0.51752	0.11875	0.23062
46.42	1.76602	0.16221	0.3023
46.48	9.51683	0.23806	0.41954
46.54	2.16008	0.39014	0.63311
46.6	5.05022	0.77493	1.09887
46.66	0.98229	2.43039	2.55432
46.72	0.60538	17.68256	14.39728
46.78	0.71972	4.81479	29.52032
46.84	1.34506	9.46825	13.23821
46.9	6.01296	2.21373	15.74689
46.96	15.49729	0.64865	4.07514
47.02	4.78135	0.34722	1.59729
47.08	8.41406	0.23446	1.41592
47.14	1.80387	0.18536	2.43323
47.2	1.88677	0.16798	14.33069
47.26	8.73931	0.17459	11.44532
47.32	11.01315	0.21138	8.28094
47.38	5.38394	0.3205	6.36578
47.44	6.00206	0.57386	1.29692
47.5	1.07178	1.62146	0.72707
47.56	0.49802	11.63089	0.4521
47.62	0.33745	3.12667	0.35734
47.68	0.21235	5.99389	0.78057
47.74	0.17277	1.57618	0.6714
47.8	0.12165	0.44042	0.66936
47.86	0.09757	0.22632	0.43434
47.92	0.09003	0.14227	0.25688
47.98	0.09748	0.09974	0.1276
48.04	0.06524	0.07511	0.09502
48.1	0.06718	0.05992	0.11055
48.16	0.04603	0.05199	0.06888
48.22	0.03955	0.07409	0.07486
48.28	0.03506	0.05401	0.05101
48.34	0.03157	0.04658	0.04454
48.4	0.02864	0.03749	0.04146
48.46	0.02624	0.02469	0.04375
48.52	0.02421	0.02104	0.08129
48.58	0.02248	0.01867	0.04234
48.64	0.02107	0.01685	0.05446
48.7	0.01988	0.01542	0.03455
48.76	0.01882	0.01429	0.03029
48.82	0.01799	0.01329	0.03005
48.88	0.01727	0.01246	0.03189
48.94	0.0167	0.01178	0.03824
49	0.01629	0.01125	0.06113
49.06	0.01606	0.01087	0.2713
49.12	0.01605	0.01069	0.2501
49.18	0.01639	0.01086	0.15299
49.24	0.017	0.01166	0.18314
49.3	0.01846	0.01443	0.13943
49.36	0.02119	0.02905	0.15076
49.42	0.02702	0.13386	0.1043
49.48	0.04248	0.03656	0.30115
49.54	0.11888	0.06982	0.24846
49.6	0.60381	0.02375	0.12986
49.66	0.14744	0.01191	0.16767
49.72	0.31715	0.00964	0.04668
49.78	0.10097	0.00882	0.03322
49.84	0.07403	0.00849	0.03011
49.9	0.26634	0.00847	0.02998
49.96	0.37206	0.00875	0.03167
50.02	0.1463	0.00955	0.03506
50.08	0.25419	0.01148	0.04048
50.14	0.05224	0.0184	0.04894
50.2	0.02886	0.0813	0.06243
50.26	0.0222	0.0599	0.08548
50.32	0.01947	0.04083	0.12952
50.38	0.01832	0.04565	0.23003
50.44	0.01806	0.01493	0.55585
50.5	0.0183	0.01155	3.38198
50.56	0.019	0.01079	3.42728
50.62	0.02016	0.01079	1.6
50.68	0.02181	0.01117	2.49046
50.74	0.02409	0.01183	0.43441
50.8	0.0272	0.01277	0.19556
50.86	0.03146	0.01403	0.1585
50.92	0.03744	0.01569	0.44851
50.98	0.04615	0.0179	0.17548
51.04	0.05952	0.02089	0.19726
51.1	0.08135	0.02506	0.12551
51.16	0.12098	0.03111	0.04844
51.22	0.20528	0.04038	0.03472
51.28	0.44159	0.05567	0.02871
51.34	1.89923	0.08378	0.02547
51.4	6.28933	0.14501	0.02357
51.46	1.4403	0.32491	0.02266
51.52	3.68138	1.60037	0.02275
51.58	0.79324	3.4625	0.02393
51.64	0.25227	0.93583	0.02722
51.7	0.13561	2.33987	0.03549
51.76	0.08856	0.43055	0.06197
51.82	0.06485	0.15317	0.27245
51.88	0.05146	0.08601	0.37189
51.94	0.04351	0.05837	0.14041
52	0.03888	0.04456	0.28813
52.06	0.03661	0.03714	0.071
52.12	0.03644	0.03337	0.05252
52.18	0.03858	0.03206	0.07988
52.24	0.04446	0.03293	0.38156
52.3	0.05829	0.03633	0.22134
52.36	0.09765	0.04352	0.15935
52.42	0.35659	0.05796	0.1963
52.48	0.65888	0.09022	0.06107
52.54	0.71727	0.18674	0.05115
52.6	0.5561	0.90243	0.06033
52.66	0.39261	1.38197	0.09463
52.72	0.37506	0.52106	0.28653
52.78	1.17316	1.40465	0.85534
52.84	0.36779	1.61098	0.57539
52.9	0.73131	0.3996	0.62918
52.96	1.49059	0.79774	0.80919
53.02	0.56055	0.26041	0.26656
53.08	1.34493	0.0961	0.55687
53.14	1.02282	0.06856	1.63774
53.2	1.95633	0.06691	0.46942
53.26	0.90171	0.08836	0.68172
53.32	0.69509	0.17877	0.65797
53.38	0.46772	0.95874	0.35137
53.44	0.12511	0.94962	0.24419
53.5	0.07254	0.38984	0.32273
53.56	0.06694	0.8091	0.51807
53.62	0.05193	0.15763	0.71371
53.68	0.04144	0.06351	0.25017
53.74	0.05007	0.03866	0.54787
53.8	0.10025	0.02786	0.18621
53.86	0.07184	0.02226	0.19215
53.92	0.04738	0.01945	0.60998
53.98	0.06668	0.02153	1.51231
54.04	0.0282	0.03448	0.89293
54.1	0.02334	0.0177	0.67739
54.16	0.02241	0.02261	0.78209
54.22	0.02274	0.01561	0.21504
54.28	0.02394	0.0127	0.17624
54.34	0.02605	0.01219	0.28645
54.4	0.02937	0.01217	1.22239
54.46	0.0346	0.01241	1.96498
54.52	0.0432	0.01296	0.91239
54.58	0.05853	0.01385	1.02478
54.64	0.09005	0.01516	0.73698
54.7	0.17423	0.01711	0.3358
54.76	0.63458	0.02006	0.29275
54.82	2.44231	0.02477	0.34905
54.88	0.57546	0.03302	1.3304
54.94	1.08577	0.04971	2.76477
55	0.53547	0.09374	0.70254
55.06	0.15482	0.34568	1.71372
55.12	0.1026	1.05161	0.51555
55.18	0.09691	0.28967	0.16524
55.24	0.12104	0.6715	0.09708
55.3	0.20906	1.08222	0.07056
55.36	0.74828	0.33141	0.05833
55.42	2.32768	0.31794	0.05347
55.48	0.59496	0.32242	0.05649
55.54	1.23816	0.08435	0.10214
55.6	1.09384	0.05431	0.08879
55.66	1.50987	0.05128	0.09863
55.72	0.40667	0.06638	0.27792
55.78	0.87031	0.1345	0.58488
55.84	0.30748	0.70341	0.17495
55.9	0.10472	0.54645	0.36463
55.96	0.06455	0.23926	0.23838
56.02	0.04798	0.53862	0.1518
56.08	0.03932	0.11634	0.4555
56.14	0.03425	0.04922	0.1998
56.2	0.03105	0.03236	0.20188
56.26	0.02907	0.02528	0.34434
56.32	0.02786	0.02164	0.35644
56.38	0.0272	0.01962	0.19325
56.44	0.02698	0.01852	0.34644
56.5	0.02703	0.01798	0.37711
56.56	0.0275	0.01782	0.94449
56.62	0.02813	0.01791	5.12164
56.68	0.02918	0.01829	1.8949
56.74	0.03045	0.01891	1.51871
56.8	0.03196	0.01989	2.25404
56.86	0.03382	0.02192	0.46872
56.92	0.03617	0.03051	0.22629
56.98	0.04056	0.02571	0.1605
57.04	0.04522	0.02677	0.14087
57.1	0.04558	0.02972	0.1364
57.16	0.05123	0.02869	0.14978
57.22	0.05447	0.03074	0.18334
57.28	0.06097	0.0335	0.25228
57.34	0.07031	0.03681	0.41595
57.4	0.07516	0.04093	0.94862
57.46	0.08676	0.04593	4.93749
57.52	0.09866	0.05215	5.2652
57.58	0.115	0.06036	1.7664
57.64	0.13789	0.07557	4.57177
57.7	0.1701	0.08442	1.45165
57.76	0.21799	0.09868	0.66945
57.82	0.29546	0.123	0.3466
57.88	0.43835	0.15056	0.41705
57.94	0.76783	0.1964	0.2996
58	2.09677	0.27065	0.53357
58.06	10.20083	0.40226	0.4398
58.12	3.85683	0.67317	0.63439
58.18	3.35505	1.39338	0.49014
58.24	5.69177	5.27528	0.47945
58.3	4.44921	19.14997	0.52326
58.36	18.15539	4.81193	0.66529
58.42	6.81992	6.69403	1.21102
58.48	6.016	6.21764	3.07646
58.54	12.73349	1.41285	16.795
58.6	17.80961	0.77076	9.7706
58.66	4.61293	0.67887	4.6637
58.72	6.0533	0.94815	11.13252
58.78	5.41627	2.86822	2.61857
58.84	1.27018	10.69893	1.04556
58.9	0.62405	2.80775	0.76006
58.96	0.39419	3.40857	0.81728
59.02	0.27902	3.76781	1.38313
59.08	0.21127	0.80807	5.6637
59.14	0.16734	0.36876	10.16099
59.2	0.1369	0.22526	2.6712
59.26	0.11488	0.15675	5.66766
59.32	0.09843	0.1177	2.95189
59.38	0.08588	0.09284	0.81017
59.44	0.07611	0.0759	0.46235
59.5	0.06856	0.0637	0.34899
59.56	0.06276	0.05462	0.31679
59.62	0.05844	0.04774	0.33776
59.68	0.05548	0.04239	0.42637
59.74	0.05391	0.03816	0.66363
59.8	0.05396	0.03491	1.45358
59.86	0.05625	0.03243	6.99471
59.92	0.06195	0.03061	8.85959
59.98	0.07408	0.02948	3.07187
60.04	0.10095	0.02912	6.13391
60.1	0.17407	0.02979	3.26806
60.16	0.57033	0.03206	0.91512
60.22	1.35227	0.03741	0.47871
60.28	1.69151	0.05019	0.4095
60.34	0.83355	0.08935	0.24145
60.4	0.74159	0.34665	0.20746
60.46	0.66628	0.53284	0.36318
60.52	0.16982	0.196	0.18657
60.58	0.08571	0.55308	0.15161
60.64	0.05804	0.49799	0.20082
60.7	0.04462	0.14272	0.12687
60.76	0.03696	0.24496	0.1344
60.82	0.03215	0.12708	0.18981
60.88	0.02896	0.04538	0.4002
60.94	0.02678	0.02986	1.89977
61	0.02534	0.02361	1.70495
61.06	0.02437	0.02038	0.58366
61.12	0.02381	0.01856	1.43029
61.18	0.0236	0.01751	0.57315
61.24	0.0237	0.01699	0.17668
61.3	0.02413	0.01686	0.10271
61.36	0.02489	0.01707	0.07406
61.42	0.02602	0.01762	0.05998
61.48	0.02761	0.01853	0.05249
61.54	0.02975	0.01989	0.0491
61.6	0.03261	0.02181	0.05023
61.66	0.03644	0.02452	0.06978
61.72	0.04165	0.02839	0.13279
61.78	0.04893	0.03409	0.06746
61.84	0.05949	0.04291	0.07336
61.9	0.07571	0.05765	0.09172
61.96	0.10291	0.08549	0.07207
62.02	0.15543	0.14975	0.08685
62.08	0.28676	0.39292	0.12763
62.14	0.96409	1.85587	0.24966
62.2	2.61837	0.9979	1.01741
62.26	0.92285	0.6474	1.76204
62.32	1.81464	2.10406	0.49626
62.38	2.88241	0.76799	0.84931
62.44	1.91662	0.35358	0.78223
62.5	3.25109	0.64751	0.3536
62.56	3.13708	0.23507	0.41746
62.62	2.12897	0.14665	1.59704
62.68	1.36958	0.17093	1.73584
62.74	1.43872	0.30625	0.57001
62.8	0.51943	1.16782	1.17453
62.86	0.19636	2.8319	0.80061
62.92	0.118	0.73098	0.50017
62.98	0.08235	0.93711	1.58753
63.04	0.06228	1.22728	1.70348
63.1	0.0496	0.27629	0.61638
63.16	0.04107	0.11847	1.25747
63.22	0.03505	0.0709	1.35146
63.28	0.03085	0.04886	3.25729
63.34	0.02835	0.0366	1.29298
63.4	0.02955	0.02899	0.7423
63.46	0.05255	0.02393	1.73471
63.52	0.03939	0.02043	0.52165
63.58	0.0254	0.01799	0.19282
63.64	0.0361	0.01644	0.14929
63.7	0.02393	0.01613	0.21187
63.76	0.01697	0.02022	0.09301
63.82	0.01519	0.04857	0.07921
63.88	0.01416	0.0276	0.10352
63.94	0.01351	0.01792	0.04648
64	0.01306	0.03054	0.03263
64.06	0.01274	0.016	0.0271
64.12	0.01255	0.01038	0.02363
64.18	0.01245	0.00904	0.02134
64.24	0.01246	0.00834	0.01974
64.3	0.01257	0.00793	0.01939
64.36	0.01278	0.00767	0.02544
64.42	0.01307	0.00749	0.0246
64.48	0.01355	0.00739	0.0173
64.54	0.01424	0.00735	0.01965
64.6	0.0151	0.00738	0.01763
64.66	0.01622	0.00743	0.01398
64.72	0.0177	0.00759	0.01313
64.78	0.01966	0.00782	0.01276
64.84	0.02231	0.00814	0.0126
64.9	0.02597	0.00857	0.01266
64.96	0.03121	0.00915	0.01302
65.02	0.039	0.00991	0.01376
65.08	0.05152	0.01094	0.01539
65.14	0.0734	0.01236	0.0194
65.2	0.11693	0.01432	0.03533
65.26	0.22507	0.01717	0.11826
65.32	0.70752	0.02153	0.07262
65.38	2.90506	0.02868	0.0676
65.44	1.15241	0.04167	0.08432
65.5	0.61181	0.06926	0.07142
65.56	1.55287	0.14778	0.05906
65.62	0.56469	0.60121	0.02996
65.68	0.17038	1.28689	0.04382
65.74	0.09098	0.34489	0.06152
65.8	0.05953	0.38704	0.02581
65.86	0.04363	0.66191	0.02317
65.92	0.0344	0.16349	0.03251
65.98	0.02859	0.06439	0.01845
66.04	0.02473	0.03817	0.01545
66.1	0.02208	0.02663	0.0151
66.16	0.02023	0.02048	0.01532
66.22	0.01889	0.01683	0.01586
66.28	0.01802	0.0145	0.01672
66.34	0.01748	0.01295	0.01792
66.4	0.01719	0.01191	0.01962
66.46	0.01713	0.01121	0.02221
66.52	0.01727	0.01072	0.02648
66.58	0.01762	0.01045	0.03643
66.64	0.01812	0.01034	0.05932
66.7	0.01891	0.01035	0.1559
66.76	0.01998	0.01048	0.23009
66.82	0.0214	0.01076	0.2874
66.88	0.02333	0.01113	0.15822
66.94	0.02596	0.01167	0.15006
67	0.02976	0.01241	0.16381
67.06	0.0358	0.01345	0.07891
67.12	0.04676	0.01518	0.05365
67.18	0.07366	0.01866	0.05285
67.24	0.20636	0.03137	0.05892
67.3	0.43801	0.0849	0.07182
67.36	0.17862	0.04689	0.09718
67.42	0.25037	0.03198	0.15487
67.48	0.77178	0.05484	0.36563
67.54	0.40891	0.03989	1.49357
67.6	0.17982	0.03019	1.03492
67.66	0.32053	0.03245	0.41826
67.72	0.2492	0.04081	0.84597
67.78	0.12153	0.07515	0.67706
67.84	0.11154	0.07952	0.24771
67.9	0.12618	0.0669	0.21071
67.96	0.16049	0.09323	0.19062
68.02	0.2302	0.1289	0.21671
68.08	0.40133	0.18756	0.29307
68.14	1.19254	0.44796	0.47305
68.2	3.47366	1.86462	1.11596
68.26	1.34965	1.43014	4.49451
68.32	1.12257	0.51105	3.35537
68.38	2.72893	0.93541	1.3629
68.44	4.74098	0.94922	2.53423
68.5	5.40084	0.33438	2.86287
68.56	2.74841	0.2662	2.93486
68.62	2.44978	0.32963	9.50888
68.68	3.31711	0.60325	10.78445
68.74	2.35915	1.72664	3.51917
68.8	4.18843	1.96795	4.74133
68.86	5.96827	5.80355	6.22178
68.92	1.74497	6.62584	1.89149
68.98	1.92111	2.34008	0.71275
69.04	3.49697	2.72511	0.4271
69.1	1.0054	3.7403	0.35883
69.16	0.38619	1.09475	0.28077
69.22	0.22716	0.41555	0.21578
69.28	0.15672	0.23701	0.24005
69.34	0.12521	0.15926	0.31392
69.4	0.10037	0.12712	0.76954
69.46	0.07543	0.098	1.76537
69.52	0.06488	0.07137	0.57494
69.58	0.05816	0.06145	0.42209
69.64	0.0457	0.05413	0.95286
69.7	0.03903	0.04078	0.41269
69.76	0.03427	0.03408	0.14832
69.82	0.0305	0.02943	0.09185
69.88	0.02748	0.0258	0.07733
69.94	0.02493	0.02288	0.057
70	0.02284	0.02047	0.04552
70.06	0.02109	0.01847	0.04
70.12	0.01957	0.01681	0.03712
70.18	0.01834	0.0154	0.03681
70.24	0.01728	0.01418	0.0414
70.3	0.01642	0.01313	0.07024
70.36	0.01579	0.01218	0.11058
70.42	0.01533	0.01142	0.11829
70.48	0.0151	0.01078	0.3153
70.54	0.01519	0.01027	0.1764
70.6	0.01574	0.00986	0.08504
70.66	0.01707	0.00959	0.14543
70.72	0.01991	0.00952	0.11336
70.78	0.02649	0.00978	0.05686
70.84	0.04571	0.01071	0.09843
70.9	0.14771	0.0138	0.07018
70.96	0.31974	0.02975	0.03458
71.02	0.10355	0.07673	0.04573
71.08	0.07548	0.03246	0.05251
71.14	0.17241	0.01959	0.02508
71.2	0.08001	0.0379	0.01987
71.26	0.02875	0.02627	0.0206
71.32	0.01807	0.01128	0.03006
71.38	0.01384	0.00826	0.03482
71.44	0.01172	0.00715	0.03978
71.5	0.01045	0.00659	0.11077
71.56	0.00963	0.00626	0.19821
71.62	0.00911	0.00606	0.07204
71.68	0.00874	0.00593	0.07205
71.74	0.00849	0.00587	0.12178
71.8	0.00835	0.00585	0.06354
71.86	0.00827	0.00587	0.04829
71.92	0.00826	0.00594	0.09157
71.98	0.00827	0.00604	0.21293
72.04	0.00839	0.00618	0.08449
72.1	0.00859	0.00641	0.04968
72.16	0.00887	0.00669	0.1003
72.22	0.00926	0.00701	0.07196
72.28	0.00975	0.00742	0.02862
72.34	0.01053	0.00793	0.02065
72.4	0.01176	0.00858	0.01899
72.46	0.01427	0.00941	0.01979
72.52	0.02408	0.01049	0.02305
72.58	0.04225	0.01196	0.03114
72.64	0.0244	0.01408	0.05726
72.7	0.02279	0.01726	0.19019
72.76	0.03413	0.02242	0.24703
72.82	0.03355	0.03209	0.08748
72.88	0.03568	0.0554	0.09064
72.94	0.05088	0.15676	0.182
73	0.1021	0.38282	0.11084
73.06	0.32806	0.20596	0.14973
73.12	0.30206	0.32142	0.49482
73.18	0.18375	0.54868	0.44714
73.24	0.41927	0.25184	0.15241
73.3	0.8894	0.15011	0.19035
73.36	0.71408	0.26906	0.34469
73.42	0.39169	0.15729	0.12983
73.48	0.55876	0.11767	0.06981
73.54	1.06258	0.19787	0.05533
73.6	0.59263	0.66321	0.04204
73.66	0.22205	1.21031	0.04124
73.72	0.29432	0.42671	0.05701
73.78	0.3642	0.28103	0.10612
73.84	0.14154	0.631	0.16947
73.9	0.12849	0.38485	0.12146
73.96	0.23838	0.1184	0.11019
74.02	0.14557	0.05951	0.13727
74.08	0.07471	0.03967	0.17339
74.14	0.09472	0.03049	0.34427
74.2	0.12146	0.02618	0.54338
74.26	0.0502	0.02533	0.34715
74.32	0.03202	0.02965	0.33612
74.38	0.02823	0.05684	0.36674
74.44	0.02982	0.14616	0.29826
74.5	0.03424	0.07608	0.37908
74.56	0.03215	0.03996	0.74641
74.62	0.03575	0.06218	0.66019
74.68	0.0452	0.0759	0.28528
74.74	0.05732	0.03711	0.35106
74.8	0.08081	0.03218	0.77045
74.86	0.1397	0.03906	1.22773
74.92	0.38058	0.05918	1.28694
74.98	1.21048	0.12151	0.51646
75.04	0.68799	0.42275	0.45007
75.1	0.33186	0.68723	0.74838
75.16	0.60101	0.22606	0.59235
75.22	1.37525	0.16304	0.44153
75.28	1.21718	0.36903	0.20508
75.34	0.43128	0.23533	0.20712
75.4	0.47541	0.0811	0.23242
75.46	0.82484	0.0525	0.17882
75.52	0.40064	0.05098	0.14542
75.58	0.17228	0.06977	0.29626
75.64	0.1914	0.16621	0.51641
75.7	0.10524	0.53495	0.24318
75.76	0.05914	0.33507	0.14138
75.82	0.04927	0.12498	0.27302
75.88	0.05294	0.17232	0.26314
75.94	0.0881	0.30195	0.10307
76	0.2569	0.10881	0.07419
76.06	0.23049	0.04463	0.10401
76.12	0.08594	0.02924	0.17905
76.18	0.08923	0.02318	0.1305
76.24	0.1745	0.02074	0.06038
76.3	0.08471	0.02062	0.06722
76.36	0.03837	0.02345	0.11016
76.42	0.02808	0.03587	0.05902
76.48	0.02436	0.09553	0.04034
76.54	0.02283	0.114	0.04572
76.6	0.02241	0.04565	0.08251
76.66	0.0227	0.04049	0.06558
76.72	0.02362	0.07585	0.04285
76.78	0.02507	0.05159	0.04773
76.84	0.02728	0.0283	0.06568
76.9	0.03049	0.02456	0.04919
76.96	0.03528	0.02476	0.04477
77.02	0.04293	0.02651	0.0475
77.08	0.05776	0.02949	0.0526
77.14	0.08806	0.03384	0.05973
77.2	0.16208	0.04021	0.06932
77.26	0.45816	0.04989	0.08246
77.32	0.6255	0.06172	0.10078
77.38	0.43631	0.08118	0.12757
77.44	0.24095	0.11578	0.1693
77.5	0.35457	0.18474	0.24081
77.56	0.37505	0.37791	0.38563
77.62	0.22191	1.20926	0.82634
77.68	0.15343	1.95963	2.19354
77.74	0.16925	1.15685	3.67677
77.8	0.23306	2.28078	4.09371
77.86	0.40886	2.30718	4.14809
77.92	1.15491	1.22503	3.86187
77.98	2.58514	0.75947	3.01149
78.04	1.54629	1.26183	2.36574
78.1	2.54046	0.62769	2.48786
78.16	2.90407	0.22688	1.37031
78.22	1.82705	0.13023	0.62754
78.28	1.03623	0.09487	0.48857
78.34	1.62937	0.08032	0.52994
78.4	1.14001	0.06499	0.4808
78.46	0.81262	0.05814	0.92093
78.52	1.74466	0.05796	2.70162
78.58	3.18936	0.06083	1.96993
78.64	3.37293	0.06365	0.7589
78.7	1.99396	0.07326	0.92729
78.76	1.52563	0.09136	1.96337
78.82	1.73114	0.12434	0.96672
78.88	1.7368	0.18985	0.3871
78.94	0.75249	0.34879	0.33909
79	0.29935	0.98624	0.38638
79.06	0.18006	3.11499	0.31441
79.12	0.13399	2.05993	0.48641
79.18	0.10862	0.72973	1.30112
79.24	0.08527	0.83059	2.21703
79.3	0.07471	1.77993	1.58073
79.36	0.07317	0.86772	0.85615
79.42	0.0731	0.28738	0.95618
79.48	0.07701	0.15302	1.17164
79.54	0.09604	0.10695	0.77966
79.6	0.15509	0.0878	0.36837
79.66	0.41679	0.07573	0.29216
79.72	0.87348	0.08404	0.32317
79.78	0.42748	0.15471	0.37414
79.84	0.38999	0.40023	0.56378
79.9	0.90889	0.28304	1.15155
79.96	0.8001	0.11685	0.8447
79.98	0.59441	0.10476	0.62152