File: XRD_N2.txt
10.0013	13.8485
10.0621	12.5669
10.1228	12.1653
10.1835	12.2992
10.2443	11.4384
10.305	10.8263
10.3658	11.5914
10.4265	12.1844
10.4873	11.1897
10.548	10.5777
10.6087	13.2173
10.6695	9.56389
10.7302	10.8646
10.791	10.3099
10.8517	10.8454
10.9125	10.1568
10.9732	10.635
11.0339	11.1706
11.0947	10.1186
11.1554	9.44912
11.2162	9.81255
11.2769	10.4246
11.3377	9.41086
11.3984	9.14308
11.4592	8.70314
11.5199	7.28768
11.5806	8.79878
11.6414	7.4407
11.7021	7.89977
11.7629	8.45448
11.8236	7.45983
11.8844	7.24943
11.9451	7.45983
12.0058	6.17827
12.0666	6.50344
12.1273	6.80949
12.1881	5.96787
12.2488	6.12089
12.3096	6.63734
12.3703	5.24101
12.431	4.95409
12.4918	5.64269
12.5525	4.85845
12.6133	5.77659
12.674	5.98699
12.7348	4.85845
12.7955	5.0306
12.8562	4.91584
12.917	4.05509
12.9777	4.01683
13.0385	4.15073
13.0992	3.21347
13.16	4.15073
13.2207	3.00306
13.2814	3.88294
13.3422	2.50574
13.4029	4.51415
13.4637	3.86381
13.5244	2.94568
13.5852	3.72992
13.6459	4.05509
13.7066	3.76817
13.7674	4.1316
13.8281	2.63963
13.8889	2.73527
13.9496	3.0987
14.0104	2.88829
14.0711	3.63428
14.1318	3.11783
14.1926	2.18057
14.2533	2.65876
14.3141	3.48125
14.3748	2.83091
14.4356	3.9977
14.4963	3.90207
14.557	5.43229
14.6178	5.5088
14.6785	5.75746
14.7393	5.24101
14.8	4.24637
14.8608	3.34736
14.9215	1.70237
14.9822	2.85004
15.043	1.51109
15.1037	1.01377
15.1645	0.899005
15.2252	1.87452
15.286	2.83091
15.3467	1.81714
15.4074	2.37184
15.4682	1.53022
15.5289	1.7215
15.5897	1.54935
15.6504	0.937261
15.7112	1.54935
15.7719	1.58761
15.8326	0.726855
15.8934	1.26243
15.9541	2.25708
16.0149	1.43458
16.0756	0.956389
16.1364	1.87452
16.1971	1.7215
16.2578	2.02754
16.3186	0.937261
16.3793	1.01377
16.4401	1.45371
16.5008	2.35272
16.5616	0.994644
16.6223	1.75976
16.683	1.22418
16.7438	1.3772
16.8045	1.62586
16.8653	1.75976
16.926	1.33894
16.9868	1.41546
17.0475	1.0329
17.1082	1.33894
17.169	1.39633
17.2297	0.267789
17.2905	1.58761
17.3512	1.16679
17.412	1.18592
17.4727	1.70237
17.5335	1.58761
17.5942	1.7215
17.6549	1.47284
17.7157	1.05203
17.7764	1.05203
17.8372	1.16679
17.8979	0.822494
17.9587	1.26243
18.0194	1.31982
18.0801	1.35807
18.1409	1.77888
18.2016	2.04667
18.2624	0.745983
18.3231	2.10406
18.3839	1.22418
18.4446	1.31982
18.5053	1.62586
18.5661	1.22418
18.6268	1.98929
18.6876	1.47284
18.7483	1.39633
18.8091	0.726855
18.8698	0.592961
18.9305	0.975516
18.9913	1.16679
19.052	1.28156
19.1128	1.70237
19.1735	1.70237
19.2343	2.23795
19.295	1.47284
19.3557	2.0658
19.4165	0.937261
19.4772	1.26243
19.538	2.67789
19.5987	1.95103
19.6595	2.31446
19.7202	1.93191
19.7809	2.54399
19.8417	2.16144
19.9024	1.62586
19.9632	1.31982
20.0239	2.0658
20.0847	2.02754
20.1454	1.70237
20.2061	1.87452
20.2669	1.79801
20.3276	0.6503443
20.3884	1.53022
20.4491	1.01377
20.5099	1.30069
20.5706	1.45371
20.6313	2.23795
20.6921	2.23795
20.7528	1.95103
20.8136	1.89365
20.8743	1.7215
20.9351	1.93191
20.9958	2.25708
21.0565	1.26243
21.1173	0.956389
21.178	2.65876
21.2388	1.41546
21.2995	0.612089
21.3603	2.10406
21.421	1.68324
21.4817	1.10941
21.5425	2.02754
21.6032	1.33894
21.664	0.612089
21.7247	2.00842
21.7855	1.31982
21.8462	1.62586
21.9069	2.04667
21.9677	3.86381
22.0284	4.53328
22.0892	7.76588
22.1499	9.10482
22.2107	10.3864
22.2714	10.3481
22.3321	8.01454
22.3929	6.04438
22.4536	5.18363
22.5144	6.02525
22.5751	7.28768
22.6359	9.46825
22.6966	8.66488
22.7573	7.88064
22.8181	5.87223
22.8788	5.47054
22.9396	4.342
23.0003	3.40474
23.0611	2.31446
23.1218	2.39097
23.1826	3.82555
23.2433	3.34736
23.304	2.4101
23.3648	3.28998
23.4255	4.32288
23.4863	4.39939
23.547	4.30375
23.6078	4.22724
23.6685	5.3749
23.7292	3.32823
23.79	4.43764
23.8507	3.50038
23.9115	2.58225
23.9722	3.48125
24.033	2.02754
24.0937	2.81178
24.1544	3.443
24.2152	2.33359
24.2759	2.4101
24.3367	2.48661
24.3974	2.42923
24.4582	3.02219
24.5189	2.60138
24.5796	2.42923
24.6404	3.00306
24.7011	1.60673
24.7619	2.25708
24.8226	2.85004
24.8834	2.10406
24.9441	1.93191
25.0048	1.45371
25.0656	2.33359
25.1263	2.21882
25.1871	1.51109
25.2478	1.68324
25.3086	2.02754
25.3693	1.51109
25.43	1.30069
25.4908	2.58225
25.5515	2.0658
25.6123	2.18057
25.673	2.04667
25.7338	3.02219
25.7945	2.6205
25.8552	2.19969
25.916	2.23795
25.9767	1.18592
26.0375	1.51109
26.0982	1.35807
26.159	2.85004
26.2197	2.08493
26.2804	2.10406
26.3412	1.39633
26.4019	3.17521
26.4627	1.91278
26.5234	3.0987
26.5842	2.25708
26.6449	2.19969
26.7056	3.3091
26.7664	3.06044
26.8271	2.90742
26.8879	2.52487
26.9486	3.63428
27.0094	4.36113
27.0701	7.28768
27.1308	9.90819
27.1916	13.4277
27.2523	13.1599
27.3131	12.9495
27.3738	9.75516
27.4346	8.30145
27.4953	6.02525
27.556	4.51415
27.6168	3.90207
27.6775	4.16985
27.7383	3.7873
27.799	4.95409
27.8598	4.36113
27.9205	5.26014
27.9812	4.51415
28.042	3.74904
28.1027	4.26549
28.1635	3.46213
28.2242	3.32823
28.285	4.16985
28.3457	4.43764
28.4064	4.72456
28.4672	4.66718
28.5279	5.3749
28.5887	5.39403
28.6494	6.17827
28.7102	6.90513
28.7709	6.48432
28.8316	5.58531
28.8924	5.54705
28.9531	6.23565
29.0139	6.02525
29.0746	6.25478
29.1354	5.79572
29.1961	7.32594
29.2569	9.48738
29.3176	10.176
29.3783	14.6901
29.4391	18.0566
29.4998	17.8845
29.5606	15.9717
29.6213	12.7774
29.6821	9.69778
29.7428	7.00077
29.8035	6.04438
29.8643	5.98699
29.925	6.04438
29.9858	8.20581
30.0465	9.81255
30.1073	13.7146
30.168	14.6327
30.2287	12.9495
30.2895	11.0176
30.3502	10.2907
30.411	9.23871
30.4717	10.0803
30.5325	9.86993
30.5932	10.482
30.6539	9.33435
30.7147	8.53099
30.7754	7.82326
30.8362	6.46519
30.8969	6.25478
30.9577	6.31217
31.0184	6.80949
31.0791	5.3749
31.1399	8.41622
31.2006	8.85616
31.2614	8.05279
31.3221	9.41086
31.3829	9.62127
31.4436	7.93803
31.5043	8.74139
31.5651	10.7307
31.6258	12.6435
31.6866	12.4522
31.7473	13.1408
31.8081	15.7613
31.8688	22.3795
31.9295	36.6106
31.9903	64.4415
32.051	88.6572
32.1118	99.847
32.1725	93.8982
32.2333	79.6672
32.294	67.6358
32.3547	61.9549
32.4155	61.4384
32.4762	58.7031
32.537	50
32.5977	37.8347
32.6585	25.0765
32.7192	18.0949
32.7799	12.0888
32.8407	11.1897
32.9014	9.37261
32.9622	7.21117
33.0229	6.21653
33.0837	5.66182
33.1444	4.72456
33.2051	5.8531
33.2659	5.45142
33.3266	5.18363
33.3874	5.14537
33.4481	5.45142
33.5089	5.0306
33.5696	5.73833
33.6303	5.70008
33.6911	5.48967
33.7518	5.96787
33.8126	6.23565
33.8733	5.96787
33.9341	5.68095
33.9948	5.12624
34.0555	4.6863
34.1163	5.52793
34.177	3.38562
34.2378	4.05509
34.2985	3.80643
34.3593	4.57154
34.42	4.78194
34.4807	4.45677
34.5415	4.70543
34.6022	5.27927
34.663	4.97322
34.7237	5.54705
34.7845	4.32288
34.8452	4.8202
34.906	4.39939
34.9667	4.64805
35.0274	5.04973
35.0882	5.68095
35.1489	5.3749
35.2097	4.78194
35.2704	6.42693
35.3312	6.17827
35.3919	8.16756
35.4526	7.19204
35.5134	7.70849
35.5741	9.33435
35.6349	9.52563
35.6956	11.9357
35.7564	12.0314
35.8171	13.9441
35.8778	12.3565
35.9386	11.6106
35.9993	10.922
36.0601	9.5065
36.1208	7.99541
36.1816	7.42158
36.2423	7.30681
36.303	6.52257
36.3638	7.05815
36.4245	6.98164
36.4853	6.67559
36.546	6.84774
36.6068	7.67024
36.6675	6.84774
36.7282	7.785
36.789	6.84774
36.8497	7.61285
36.9105	6.1974
36.9712	6.44606
37.032	5.92961
37.0927	5.56618
37.1534	6.69472
37.2142	6.04438
37.2749	5.26014
37.3357	5.52793
37.3964	6.886
37.4572	7.97628
37.5179	12.2418
37.5786	15.6465
37.6394	18.6878
37.7001	21.7483
37.7609	21.1171
37.8216	22.609
37.8824	22.8003
37.9431	22.3412
38.0038	19.8929
38.0646	19.1086
38.1253	15.9143
38.1861	12.3948
38.2468	9.81255
38.3076	7.11553
38.3683	6.27391
38.429	5.24101
38.4898	4.99235
38.5505	4.15073
38.6113	4.32288
38.672	6.02525
38.7328	5.31752
38.7935	5.41316
38.8542	5.33665
38.915	4.36113
38.9757	4.1316
39.0365	3.59602
39.0972	3.17521
39.158	4.18898
39.2187	3.11783
39.2794	2.9648
39.3402	3.94032
39.4009	4.342
39.4617	4.22724
39.5224	5.29839
39.5832	7.4407
39.6439	7.15379
39.7046	10.6159
39.7654	13.6955
39.8261	14.977
39.8869	15.7804
39.9476	12.7965
40.0084	9.65953
40.0691	7.17292
40.1298	5.8531
40.1906	5.87223
40.2513	7.01989
40.3121	8.1293
40.3728	8.53099
40.4336	9.12395
40.4943	7.67024
40.5551	6.14002
40.6158	6.00612
40.6765	4.59067
40.7373	4.51415
40.798	4.22724
40.8588	4.6863
40.9195	4.36113
40.9803	4.74369
41.041	5.06886
41.1017	5.70008
41.1625	3.95945
41.2232	4.53328
41.284	4.87758
41.3447	5.52793
41.4055	4.4759
41.4662	4.93497
41.5269	6.21653
41.5877	5.47054
41.6484	5.92961
41.7092	6.12089
41.7699	5.24101
41.8307	5.29839
41.8914	5.70008
41.9521	5.83397
42.0129	5.5088
42.0736	5.52793
42.1344	5.26014
42.1951	5.45142
42.2559	5.70008
42.3166	5.33665
42.3773	4.8202
42.4381	5.14537
42.4988	4.07422
42.5596	5.01148
42.6203	4.91584
42.6811	4.26549
42.7418	5.22188
42.8025	3.27085
42.8633	3.38562
42.924	3.94032
42.9848	4.24637
43.0455	4.4759
43.1063	4.74369
43.167	4.76282
43.2277	5.41316
43.2885	4.64805
43.3492	5.47054
43.41	4.59067
43.4707	5.45142
43.5315	4.80107
43.5922	4.30375
43.6529	3.90207
43.7137	3.74904
43.7744	3.38562
43.8352	2.7544
43.8959	4.18898
43.9567	4.28462
44.0174	3.36649
44.0781	3.51951
44.1389	4.8202
44.1996	6.04438
44.2604	6.33129
44.3211	5.60444
44.3819	5.5088
44.4426	5.26014
44.5033	5.33665
44.5641	5.10712
44.6248	4.76282
44.6856	6.29304
44.7463	6.21653
44.8071	6.27391
44.8678	6.31217
44.9285	6.15914
44.9893	5.77659
45.05	6.08263
45.1108	7.55547
45.1715	6.77123
45.2323	8.99005
45.293	8.33971
45.3537	8.09105
45.4145	7.42158
45.4752	7.785
45.536	9.6404
45.5967	11.6297
45.6575	12.0505
45.7182	13.8868
45.7789	13.2747
45.8397	12.1653
45.9004	11.1132
45.9612	8.51186
46.0219	8.03366
46.0827	7.2303
46.1434	7.03902
46.2041	6.86687
46.2649	7.00077
46.3256	7.53634
46.3864	8.58837
46.4471	9.25784
46.5079	12.7774
46.5686	18.267
46.6294	25.7077
46.6901	30.8914
46.7508	37.8921
46.8116	32.3259
46.8723	24.7131
46.9331	16.6412
46.9938	10.3099
47.0546	7.97628
47.1153	5.52793
47.176	4.66718
47.2368	4.66718
47.2975	5.52793
47.3583	5.64269
47.419	4.80107
47.4798	4.64805
47.5405	5.06886
47.6012	5.7192
47.662	5.92961
47.7227	5.08799
47.7835	4.24637
47.8442	5.1645
47.905	4.39939
47.9657	4.41852
48.0264	4.20811
48.0872	3.9977
48.1479	5.66182
48.2087	5.31752
48.2694	5.12624
48.3302	5.27927
48.3909	4.32288
48.4516	3.32823
48.5124	2.83091
48.5731	3.36649
48.6339	2.63963
48.6946	3.97858
48.7554	2.88829
48.8161	2.79265
48.8768	2.56312
48.9376	2.65876
48.9983	3.57689
49.0591	3.82555
49.1198	3.40474
49.1806	3.23259
49.2413	3.82555
49.302	3.21347
49.3628	4.03596
49.4235	4.11247
49.4843	3.71079
49.545	2.69702
49.6058	2.67789
49.6665	2.71614
49.7272	3.34736
49.788	2.10406
49.8487	3.32823
49.9095	3.0987
49.9702	2.83091
50.031	3.32823
50.0917	3.17521
50.1524	3.23259
50.2132	3.06044
50.2739	3.42387
50.3347	3.21347
50.3954	4.32288
50.4562	4.41852
50.5169	5.22188
50.5776	6.59908
50.6384	7.42158
50.6991	11.4002
50.7599	10.5968
50.8206	10.1377
50.8814	9.8508
50.9421	8.33971
51.0028	6.31217
51.0636	6.38868
51.1243	4.41852
51.1851	4.38026
51.2458	4.1316
51.3066	4.1316
51.3673	4.80107
51.428	6.82862
51.4888	5.22188
51.5495	6.25478
51.6103	5.96787
51.671	5.14537
51.7318	4.55241
51.7925	4.45677
51.8532	4.80107
51.914	4.32288
51.9747	5.04973
52.0355	6.35042
52.0962	6.92425
52.157	6.12089
52.2177	5.31752
52.2785	5.56618
52.3392	5.27927
52.3999	5.75746
52.4607	6.44606
52.5214	6.10176
52.5822	6.65647
52.6429	6.29304
52.7037	6.886
52.7644	5.26014
52.8251	5.43229
52.8859	4.20811
52.9466	4.70543
53.0074	4.85845
53.0681	4.01683
53.1289	3.59602
53.1896	4.20811
53.2503	3.80643
53.3111	3.72992
53.3718	3.97858
53.4326	3.74904
53.4933	3.82555
53.5541	4.28462
53.6148	4.22724
53.6755	4.32288
53.7363	5.73833
53.797	6.94338
53.8578	8.32058
53.9185	8.51186
53.9793	9.75516
54.04	8.51186
54.1007	8.33971
54.1615	8.70314
54.2222	6.65647
54.283	4.91584
54.3437	4.30375
54.4045	4.09334
54.4652	3.38562
54.5259	3.9977
54.5867	4.05509
54.6474	4.11247
54.7082	4.91584
54.7689	5.75746
54.8297	5.70008
54.8904	6.63734
54.9511	7.55547
55.0119	7.86151
55.0726	8.43535
55.1334	9.04744
55.1941	8.01454
55.2549	7.2303
55.3156	5.62357
55.3763	5.1645
55.4371	4.38026
55.4978	4.8202
55.5586	3.57689
55.6193	3.38562
55.6801	3.72992
55.7408	3.40474
55.8015	2.56312
55.8623	3.71079
55.923	2.25708
55.9838	3.27085
56.0445	3.11783
56.1053	2.94568
56.166	3.50038
56.2267	3.28998
56.2875	3.34736
56.3482	3.28998
56.409	4.24637
56.4697	3.61515
56.5305	4.43764
56.5912	4.6863
56.6519	3.97858
56.7127	3.74904
56.7734	3.28998
56.8342	4.45677
56.8949	4.62892
56.9557	4.8202
57.0164	5.96787
57.0771	7.24943
57.1379	7.99541
57.1986	11.5532
57.2594	13.9441
57.3201	13.925
57.3809	15.6848
57.4416	15.3787
57.5023	12.9686
57.5631	11.1706
57.6238	10.6159
57.6846	10.2907
57.7453	12.4904
57.8061	16.2395
57.8668	23.0107
57.9275	30.0306
57.9883	33.5119
58.049	33.2823
58.1098	27.7353
58.1705	24.7322
58.2313	16.5264
58.292	13.3894
58.3528	10.1568
58.4135	8.87529
58.4742	7.15379
58.535	6.96251
58.5957	5.79572
58.6565	7.42158
58.7172	7.01989
58.778	6.94338
58.8387	5.94874
58.8994	6.17827
58.9602	5.5088
59.0209	4.32288
59.0817	4.53328
59.1424	4.83933
59.2032	6.0635
59.2639	7.11553
59.3246	7.38332
59.3854	7.40245
59.4461	7.17292
59.5069	7.2303
59.5676	7.15379
59.6284	6.14002
59.6891	5.39403
59.7498	5.75746
59.8106	3.94032
59.8713	4.18898
59.9321	4.49503
59.9928	3.51951
60.0536	3.97858
60.1143	3.72992
60.175	3.50038
60.2358	2.90742
60.2965	3.50038
60.3573	3.13695
60.418	3.04132
60.4788	4.39939
60.5395	4.09334
60.6002	4.16985
60.661	3.84468
60.7217	4.22724
60.7825	3.07957
60.8432	4.85845
60.904	4.39939
60.9647	4.59067
61.0254	5.8531
61.0862	6.27391
61.1469	6.21653
61.2077	6.12089
61.2684	6.5417
61.3292	5.89135
61.3899	5.35578
61.4506	6.23565
61.5114	7.88064
61.5721	10.3099
61.6329	11.1324
61.6936	12.6817
61.7544	14.2502
61.8151	12.7582
61.8758	13.466
61.9366	12.7965
61.9973	10.8263
62.0581	10.176
62.1188	8.87529
62.1796	7.67024
62.2403	6.12089
62.301	6.31217
62.3618	4.66718
62.4225	4.45677
62.4833	4.20811
62.544	3.23259
62.6048	4.11247
62.6655	4.05509
62.7262	3.88294
62.787	3.55777
62.8477	3.80643
62.9085	5.52793
62.9692	3.3091
63.03	4.15073
63.0907	3.59602
63.1514	2.60138
63.2122	3.46213
63.2729	2.94568
63.3337	2.37184
63.3944	3.86381
63.4552	3.07957
63.5159	2.98393
63.5766	3.00306
63.6374	2.6205
63.6981	2.60138
63.7589	3.55777
63.8196	3.51951
63.8804	2.56312
63.9411	3.67253
64.0019	3.40474
64.0626	3.38562
64.1233	2.71614
64.1841	3.72992
64.2448	4.09334
64.3056	4.4759
64.3663	4.91584
64.4271	6.08263
64.4878	6.92425
64.5485	7.2303
64.6093	5.91048
64.67	6.96251
64.7308	6.02525
64.7915	5.60444
64.8523	4.51415
64.913	3.71079
64.9737	3.48125
65.0345	3.34736
65.0952	4.57154
65.156	3.25172
65.2167	2.39097
65.2775	2.4101
65.3382	2.46748
65.3989	2.56312
65.4597	2.58225
65.5204	2.98393
65.5812	3.61515
65.6419	4.26549
65.7027	4.03596
65.7634	3.25172
65.8241	3.97858
65.8849	4.49503
65.9456	4.01683
66.0064	3.00306
66.0671	3.32823
66.1279	2.85004
66.1886	3.443
66.2493	3.57689
66.3101	3.28998
66.3708	2.08493
66.4316	3.36649
66.4923	2.37184
66.5531	3.36649
66.6138	3.32823
66.6745	4.87758
66.7353	3.72992
66.796	4.32288
66.8568	4.22724
66.9175	4.32288
66.9783	3.88294
67.039	4.8202
67.0997	3.69166
67.1605	4.43764
67.2212	4.8202
67.282	5.98699
67.3427	6.73298
67.4035	9.6404
67.4642	9.67865
67.5249	11.0367
67.5857	13.0069
67.6464	12.873
67.7072	11.4384
67.7679	10.9985
67.8287	10.8072
67.8894	7.61285
67.9501	6.98164
68.0109	5.26014
68.0716	6.56083
68.1324	5.04973
68.1931	5.91048
68.2539	7.51721
68.3146	9.5065
68.3753	10.6733
68.4361	10.5585
68.4968	10.0038
68.5576	9.90819
68.6183	7.4407
68.6791	5.89135
68.7398	5.3749
68.8005	4.18898
68.8613	4.36113
68.922	4.30375
68.9828	3.63428
69.0435	3.72992
69.1043	3.48125
69.165	3.48125
69.2257	3.42387
69.2865	3.32823
69.3472	3.42387
69.408	2.31446
69.4687	2.83091
69.5295	2.88829
69.5902	3.06044
69.6509	3.04132
69.7117	2.33359
69.7724	3.42387
69.8332	3.61515
69.8939	4.39939
69.9547	4.43764
70.0154	3.82555
70.0762	3.15608
70.1369	2.81178
70.1976	2.50574
70.2584	2.39097
70.3191	3.11783
70.3799	3.72992
70.4406	2.73527
70.5014	3.48125
70.5621	2.71614
70.6228	3.23259
70.6836	3.25172
70.7443	3.55777
70.8051	2.79265
70.8658	2.94568
70.9266	3.21347
70.9873	3.25172
71.048	2.71614
71.1088	3.21347
71.1695	3.3091
71.2303	3.59602
71.291	4.05509
71.3518	2.6205
71.4125	3.06044
71.4732	3.48125
71.534	3.15608
71.5947	3.88294
71.6555	3.32823
71.7162	4.72456
71.777	4.62892
71.8377	4.39939
71.8984	3.38562
71.9592	4.01683
72.0199	4.30375
72.0807	4.64805
72.1414	3.88294
72.2022	3.61515
72.2629	3.9977
72.3236	4.16985
72.3844	3.0987
72.4451	3.69166
72.5059	4.342
72.5666	4.32288
72.6274	3.38562
72.6881	4.07422
72.7488	4.16985
72.8096	4.09334
72.8703	4.09334
72.9311	3.82555
72.9918	4.93497
73.0526	4.26549
73.1133	4.49503
73.174	4.53328
73.2348	4.95409
73.2955	5.26014
73.3563	4.78194
73.417	5.06886
73.4778	5.06886
73.5385	4.74369
73.5992	4.53328
73.66	4.20811
73.7207	4.49503
73.7815	3.61515
73.8422	3.50038
73.903	4.49503
73.9637	3.92119
74.0244	4.26549
74.0852	4.55241
74.1459	4.74369
74.2067	6.04438
74.2674	6.73298
74.3282	6.5417
74.3889	5.7192
74.4496	4.99235
74.5104	5.18363
74.5711	5.31752
74.6319	5.47054
74.6926	4.15073
74.7534	3.74904
74.8141	4.24637
74.8748	4.18898
74.9356	4.05509
74.9963	3.72992
75.0571	4.03596
75.1178	4.62892
75.1786	4.09334
75.2393	4.72456
75.3	4.80107
75.3608	4.43764
75.4215	4.07422
75.4823	3.82555
75.543	3.46213
75.6038	3.80643
75.6645	3.3091
75.7253	2.86917
75.786	4.15073
75.8467	3.40474
75.9075	3.46213
75.9682	3.76817
76.029	3.9977
76.0897	3.90207
76.1505	4.05509
76.2112	3.97858
76.2719	4.41852
76.3327	4.22724
76.3934	3.443
76.4542	3.36649
76.5149	3.02219
76.5757	3.69166
76.6364	3.15608
76.6971	2.12318
76.7579	2.6205
76.8186	3.25172
76.8794	3.34736
76.9401	4.07422
77.0009	3.02219
77.0616	3.63428
77.1223	3.00306
77.1831	4.26549
77.2438	4.16985
77.3046	3.11783
77.3653	4.18898
77.4261	3.02219
77.4868	4.6863
77.5475	5.06886
77.6083	5.45142
77.669	7.68936
77.7298	8.79878
77.7905	11.7062
77.8513	11.2471
77.912	12.2226
77.9727	13.4468
78.0335	11.1897
78.0942	10.2907
78.155	8.33971
78.2157	7.19204
78.2765	6.67559
78.3372	5.10712
78.3979	5.08799
78.4587	3.38562
78.5194	4.60979
78.5802	4.342
78.6409	4.53328
78.7017	3.6534
78.7624	3.17521
78.8231	3.69166
78.8839	4.43764
78.9446	5.04973
79.0054	4.85845
79.0661	5.04973
79.1269	4.70543
79.1876	5.31752
79.2483	5.26014
79.3091	4.57154
79.3698	5.01148
79.4306	3.86381
79.4913	3.32823
79.5521	3.80643
79.6128	3.28998
79.6735	3.06044
79.7343	2.90742
79.795	3.92119
79.8558	2.0658
79.9165	3.38562
79.9773	3.40474
79.9975	3.15608